recording id,timestamp [ns],gyro x [deg/s],gyro y [deg/s],gyro z [deg/s],acceleration x [g],acceleration y [g],acceleration z [g],roll [deg],pitch [deg],yaw [deg],quaternion x,quaternion y,quaternion z,quaternion w
bb09b488-e875-448b-9801-156d15b3962c,1775725052016453338,0.28038025,8.7070465,-24.003983,-0.105957024,-0.50683594,0.8393554,5.672380353323969,-31.664541426119897,10.07383326519997,-0.2756152,0.023495954,0.07091619,0.9583606
bb09b488-e875-448b-9801-156d15b3962c,1775725052026664338,-0.14686584,8.947372,-23.27156,-0.11669921,-0.50683594,0.8496093,5.636602788325101,-31.675204479305346,9.93974737437823,-0.27565467,0.023510206,0.069874205,0.95842546
bb09b488-e875-448b-9801-156d15b3962c,1775725052036875338,-0.3299713,8.275986,-22.176743,-0.11035156,-0.50878906,0.84912103,5.602396069454411,-31.688862252815184,9.81563507137,-0.27572244,0.023511244,0.06891002,0.9584757
bb09b488-e875-448b-9801-156d15b3962c,1775725052045489338,-0.6351471,7.604599,-20.89119,-0.10156249,-0.52783203,0.8764648,5.572061937338625,-31.703796543955914,9.706336412438148,-0.27580652,0.023508161,0.06805968,0.95851237
bb09b488-e875-448b-9801-156d15b3962c,1775725052054104338,-0.69618225,6.937027,-19.670486,-0.11035156,-0.5307617,0.8764648,5.538399411363803,-31.720488946147764,9.558331989357367,-0.2758956,0.02356919,0.06689258,0.9585674
bb09b488-e875-448b-9801-156d15b3962c,1775725052062719338,-0.45013428,6.263733,-18.632889,-0.105957024,-0.5024414,0.87451166,5.505433793132824,-31.736078555039004,9.444017009857081,-0.2759831,0.023556089,0.06600633,0.958604
bb09b488-e875-448b-9801-156d15b3962c,1775725052071334338,-0.6351471,6.811142,-17.599106,-0.08154297,-0.5253906,0.8754882,5.48107314191405,-31.744371555515215,9.382245031274525,-0.27602565,0.023494434,0.06554331,0.958625
bb09b488-e875-448b-9801-156d15b3962c,1775725052081564338,-0.69618225,6.2656403,-16.313553,-0.10498047,-0.5102539,0.86718744,5.44786730417739,-31.75566928700273,9.320025799016367,-0.2760883,0.023357531,0.065096095,0.95864075
bb09b488-e875-448b-9801-156d15b3962c,1775725052091794338,-1.001358,6.1397552,-15.642166,-0.10986328,-0.5161133,0.8710937,5.4274748090287614,-31.76675054280814,9.27354874215953,-0.2761598,0.023290146,0.06474988,0.9586453
bb09b488-e875-448b-9801-156d15b3962c,1775725052102024338,-0.8773804,6.263733,-14.665604,-0.11279296,-0.5214844,0.8657226,5.4117513162535476,-31.778831448035863,9.239043140106816,-0.27624476,0.023232244,0.06449201,0.95863956
bb09b488-e875-448b-9801-156d15b3962c,1775725052112207338,-0.51116943,6.0806274,-12.838364,-0.08984374,-0.5288086,0.883789,5.391082136693278,-31.79630632294666,9.151052316616804,-0.27636123,0.02325779,0.06379551,0.958652
bb09b488-e875-448b-9801-156d15b3962c,1775725052122391338,-0.5722046,6.0195923,-12.468338,-0.08398437,-0.5126953,0.88769525,5.3797174351268815,-31.79801274654053,9.134163880060207,-0.27636573,0.023202114,0.063680634,0.9586597
bb09b488-e875-448b-9801-156d15b3962c,1775725052132575338,-0.32806396,5.897522,-11.919022,-0.09277343,-0.5234375,0.902832,5.372792480582791,-31.797589226455113,9.122967963116228,-0.27635607,0.02317151,0.063603915,0.9586683
bb09b488-e875-448b-9801-156d15b3962c,1775725052140263338,-0.32806396,5.897522,-10.820389,-0.07324218,-0.5209961,0.883789,5.370655974288105,-31.795131996849275,9.116771707690475,-0.27633312,0.023170492,0.06355866,0.95867795
bb09b488-e875-448b-9801-156d15b3962c,1775725052147950338,0.16021729,5.7754517,-10.087967,-0.095214844,-0.5161133,0.8833007,5.363259908902009,-31.789285824090655,9.102246241848551,-0.27627727,0.023148183,0.06345837,0.9587012
bb09b488-e875-448b-9801-156d15b3962c,1775725052155637338,-0.08392334,5.592346,-9.599686,-0.09472656,-0.51220703,0.87207025,5.362808156690912,-31.78973973219171,9.09091409821633,-0.27627853,0.023171373,0.06336439,0.9587065
bb09b488-e875-448b-9801-156d15b3962c,1775725052163324338,0.038146973,4.798889,-9.477615,-0.08544922,-0.5205078,0.871582,5.358917035807372,-31.788482689410237,9.077705628388111,-0.2762632,0.023171637,0.06326399,0.9587175
bb09b488-e875-448b-9801-156d15b3962c,1775725052174965338,-0.022888184,4.432678,-8.684158,-0.08544921,-0.49853516,0.8623046,5.350325145048573,-31.782652098704418,9.076122444855102,-0.27620947,0.023108087,0.06327484,0.95873386
bb09b488-e875-448b-9801-156d15b3962c,1775725052186606338,-0.2670288,4.310608,-8.501053,-0.078125,-0.5151367,0.86718744,5.343446161027075,-31.778151383885902,9.091154291760926,-0.27617112,0.023017792,0.06341979,0.9587375
bb09b488-e875-448b-9801-156d15b3962c,1775725052198247338,-0.9384155,4.1275024,-7.9517365,-0.080566406,-0.52001953,0.8784179,5.336024855772169,-31.78330184848476,9.095335811412912,-0.27621084,0.022941628,0.06346968,0.95872456
bb09b488-e875-448b-9801-156d15b3962c,1775725052208464338,-1.2435913,4.005432,-7.1582794,-0.08789062,-0.5180664,0.85937494,5.332762340243534,-31.794901754847924,9.12938125008242,-0.27631268,0.022823244,0.06375566,0.9586791
bb09b488-e875-448b-9801-156d15b3962c,1775725052218681338,-1.121521,4.310608,-7.2193146,-0.076171875,-0.5053711,0.87207025,5.326428336794635,-31.798464987435302,9.110498197246942,-0.27633515,0.022813018,0.0636109,0.9586825
bb09b488-e875-448b-9801-156d15b3962c,1775725052228898338,-1.5487671,4.676819,-7.101059,-0.080078125,-0.5151367,0.86914057,5.329367164312764,-31.80816631636011,9.111696866339054,-0.276418,0.022827178,0.06360822,0.9586584
bb09b488-e875-448b-9801-156d15b3962c,1775725052239387338,-1.0604858,5.104065,-6.669998,-0.07421875,-0.51953125,0.8896484,5.334950661534616,-31.814987197490723,9.14571030078952,-0.27648482,0.022786524,0.06387535,0.95862234
bb09b488-e875-448b-9801-156d15b3962c,1775725052249875338,-0.9384155,4.5547485,-6.4868927,-0.07324218,-0.5078125,0.8867187,5.334132293706374,-31.820101947217754,9.172652081396738,-0.2765324,0.022710677,0.06409974,0.95859545
bb09b488-e875-448b-9801-156d15b3962c,1775725052260363338,-0.45204163,4.491806,-6.8531036,-0.06542969,-0.51416016,0.8808593,5.333304435036103,-31.816451346720644,9.189532161670327,-0.2765048,0.022665873,0.06424506,0.95859474
bb09b488-e875-448b-9801-156d15b3962c,1775725052268772338,0.22125244,4.2495728,-6.4868927,-0.07958984,-0.5175781,0.87988275,5.3330899308080895,-31.80062105123056,9.228065332414566,-0.27638015,0.02258353,0.06457712,0.9586103
bb09b488-e875-448b-9801-156d15b3962c,1775725052277182338,0.46539307,4.1275024,-6.669998,-0.06787109,-0.5078125,0.86425775,5.330766516823094,-31.795077856116908,9.280437606893695,-0.27634287,0.02244215,0.06502406,0.9585942
bb09b488-e875-448b-9801-156d15b3962c,1775725052285592338,0.4043579,3.8223267,-6.795883,-0.072753906,-0.51953125,0.85351557,5.329296134517829,-31.790032838463798,9.281089689726311,-0.27630004,0.022432258,0.065036,0.95860595
bb09b488-e875-448b-9801-156d15b3962c,1775725052294002338,0.7686615,4.12941,-6.8531036,-0.08496094,-0.5258789,0.8632812,5.325312942518217,-31.782314222344343,9.284697721070183,-0.27623406,0.02239633,0.06508028,0.9586228
bb09b488-e875-448b-9801-156d15b3962c,1775725052304341338,0.7095337,4.005432,-6.795883,-0.09228515,-0.5019531,0.87255853,5.326302426393756,-31.76920573598573,9.310069988587552,-0.27613014,0.022353813,0.065297775,0.9586389
bb09b488-e875-448b-9801-156d15b3962c,1775725052314680338,1.2569427,3.698349,-6.795883,-0.0727539,-0.5209961,0.87255853,5.317737068553614,-31.758304958567194,9.31724669031983,-0.27603567,0.022273492,0.0653848,0.9586621
bb09b488-e875-448b-9801-156d15b3962c,1775725052325019338,1.3198853,3.6392212,-7.101059,-0.082519524,-0.51904297,0.85937494,5.306720959966442,-31.74662194419083,9.301995581282183,-0.27592888,0.022227298,0.065290526,0.9587003
bb09b488-e875-448b-9801-156d15b3962c,1775725052332627338,1.9283295,3.7593842,-7.2193146,-0.07763671,-0.515625,0.86035156,5.2959534242945985,-31.727655416112352,9.318142190195315,-0.27576753,0.022113338,0.065462545,0.9587377
bb09b488-e875-448b-9801-156d15b3962c,1775725052340235338,1.8081665,3.8223267,-7.2193146,-0.086914055,-0.5019531,0.84619135,5.2887171856779345,-31.710928448624458,9.339165426787037,-0.2756278,0.022015456,0.06566555,0.9587662
bb09b488-e875-448b-9801-156d15b3962c,1775725052347843338,1.197815,3.7612915,-7.2841644,-0.07714843,-0.51123047,0.8452148,5.28423777522052,-31.69580003272498,9.359413713311934,-0.2755028,0.021941282,0.06585451,0.9587909
bb09b488-e875-448b-9801-156d15b3962c,1775725052355451338,1.2588501,3.4561157,-6.975174,-0.08203124,-0.5131836,0.8549804,5.278703005217661,-31.68475732464028,9.379940567067397,-0.27541134,0.0218544,0.06604597,0.958806
bb09b488-e875-448b-9801-156d15b3962c,1775725052367098338,0.831604,3.578186,-6.975174,-0.079589844,-0.5151367,0.8574218,5.274678852920763,-31.677812418882755,9.400539823939951,-0.27535495,0.021776753,0.066232026,0.9588111
bb09b488-e875-448b-9801-156d15b3962c,1775725052378745338,0.5264282,3.578186,-7.2193146,-0.08398437,-0.52197266,0.8662109,5.268572710856453,-31.672584232256,9.420742454561976,-0.2753116,0.021681286,0.06641877,0.9588128
bb09b488-e875-448b-9801-156d15b3962c,1775725052390392338,0.22125244,3.3950806,-7.036209,-0.0805664,-0.5136719,0.8662109,5.260431203417246,-31.671557142029897,9.433531609286451,-0.2753007,0.02158326,0.06654593,0.9588093
bb09b488-e875-448b-9801-156d15b3962c,1775725052400560338,-0.1449585,3.4561157,-6.7310333,-0.084472656,-0.5097656,0.86669916,5.245806421177563,-31.660812308288843,9.475217582423301,-0.2752103,0.021369353,0.06693608,0.9588129
bb09b488-e875-448b-9801-156d15b3962c,1775725052410729338,0.038146973,3.211975,-6.9179535,-0.09326172,-0.52001953,0.8627929,5.244788351026596,-31.657708057927696,9.513910758540838,-0.27519098,0.021270402,0.06726408,0.9587977
bb09b488-e875-448b-9801-156d15b3962c,1775725052420898338,0.22125244,3.211975,-6.7310333,-0.09033203,-0.5214844,0.86669916,5.240427273067891,-31.655703928536308,9.536523620083141,-0.27517587,0.021181222,0.06746492,0.9587899
bb09b488-e875-448b-9801-156d15b3962c,1775725052428581338,0.16021729,3.0899048,-6.7310333,-0.08154297,-0.52441406,0.8730468,5.236591850207847,-31.65448335166918,9.55203034264124,-0.27516627,0.021112878,0.06760458,0.9587843
bb09b488-e875-448b-9801-156d15b3962c,1775725052436262338,0.038146973,3.15094,-6.6127777,-0.09033203,-0.51904297,0.8867187,5.2318078175906955,-31.650499661575545,9.568322268009771,-0.2751332,0.021036947,0.06775469,0.9587849
bb09b488-e875-448b-9801-156d15b3962c,1775725052443943338,0.5874634,3.2730103,-6.4868927,-0.087890625,-0.5292969,0.8911132,5.228841158440506,-31.638664152949733,9.589067028318418,-0.27503642,0.020971894,0.067942254,0.9588008
bb09b488-e875-448b-9801-156d15b3962c,1775725052451624338,1.3198853,3.4561157,-6.3648224,-0.07421875,-0.5048828,0.8662109,5.226810363618458,-31.62398292899804,9.606712382882959,-0.27491587,0.020924449,0.06810329,0.958825
bb09b488-e875-448b-9801-156d15b3962c,1775725052460241338,1.0147095,2.9678345,-5.5713654,-0.09228515,-0.5102539,0.8632812,5.226413551836997,-31.56094542365839,9.636999316482015,-0.2743948,0.020899687,0.06839427,0.95895404
bb09b488-e875-448b-9801-156d15b3962c,1775725052468858338,0.831604,3.15094,-5.636215,-0.07812499,-0.5332031,0.8740234,5.229453374523558,-31.55369065249682,9.664930517054195,-0.27434114,0.020864151,0.06862495,0.9589537
bb09b488-e875-448b-9801-156d15b3962c,1775725052477475338,0.7686615,3.271103,-5.5713654,-0.08544922,-0.5371094,0.85058594,5.229104796088299,-31.54941983985198,9.697505229765992,-0.27431118,0.020786736,0.06890087,0.95894414
bb09b488-e875-448b-9801-156d15b3962c,1775725052486092338,0.95176697,3.5152435,-5.2051544,-0.102050774,-0.52685547,0.84863275,5.235626940921069,-31.549357277747585,9.736067121094333,-0.2743216,0.020749055,0.06920799,0.9589199
bb09b488-e875-448b-9801-156d15b3962c,1775725052498386338,1.077652,4.491806,-5.147934,-0.095703125,-0.5258789,0.8627929,5.264388515710392,-31.532334921834174,9.78210338231422,-0.27420524,0.020893544,0.06953435,0.95892644
bb09b488-e875-448b-9801-156d15b3962c,1775725052510677338,1.2569427,4.12941,-5.3272247,-0.083496094,-0.54052734,0.86718744,5.27875275779687,-31.527687342734104,9.826352811286183,-0.27418324,0.020911703,0.06987299,0.9589077
bb09b488-e875-448b-9801-156d15b3962c,1775725052522968338,1.197815,4.2495728,-4.9648285,-0.11865234,-0.51220703,0.86718744,5.301886193328237,-31.516830174715665,9.877751354465845,-0.27411613,0.020991322,0.07025415,0.9588973
bb09b488-e875-448b-9801-156d15b3962c,1775725052535259338,1.0757446,3.6392212,-4.1713715,-0.100097656,-0.5151367,0.8676757,5.32007897609418,-31.506818313947882,9.925305372548916,-0.27405244,0.02103816,0.07061449,0.958888
bb09b488-e875-448b-9801-156d15b3962c,1775725052547550338,1.0147095,2.784729,-3.8051605,-0.091308594,-0.52783203,0.8574218,5.3361446049931684,-31.499029153954982,9.953540553953278,-0.27400252,0.02111159,0.070816964,0.9588857
bb09b488-e875-448b-9801-156d15b3962c,1775725052557110338,1.197815,2.4795532,-3.862381,-0.09179686,-0.51953125,0.8574218,5.3468855430892726,-31.490728295003994,9.978193041591663,-0.2739444,0.02114949,0.07100251,0.95888776
bb09b488-e875-448b-9801-156d15b3962c,1775725052566670338,1.2569427,1.9931793,-3.1909943,-0.08496093,-0.5234375,0.85888666,5.353486982618202,-31.484050763710222,10.003982826825684,-0.27389753,0.021148697,0.071206525,0.9588861
bb09b488-e875-448b-9801-156d15b3962c,1775725052576230338,0.831604,1.8081665,-3.068924,-0.09228515,-0.53271484,0.8608398,5.358335393642343,-31.479972812084252,10.044250930028447,-0.27387393,0.02109646,0.07153433,0.9588696
bb09b488-e875-448b-9801-156d15b3962c,1775725052585790338,0.7686615,1.745224,-2.6416779,-0.0859375,-0.54296875,0.8442382,5.369474306820207,-31.47895906745532,10.11107400222721,-0.2738847,0.021030813,0.072067454,0.958828
bb09b488-e875-448b-9801-156d15b3962c,1775725052595350338,1.0147095,2.2964478,-2.8858185,-0.08886719,-0.5395508,0.8393554,5.3814128455869845,-31.48305256711671,10.157670957445072,-0.27393496,0.021015838,0.07242634,0.9587869
bb09b488-e875-448b-9801-156d15b3962c,1775725052605024338,-0.38719177,3.5152435,-3.0117035,-0.088378906,-0.53515625,0.8339843,5.413672720122647,-31.50899211479428,10.233994982080347,-0.27418596,0.021080982,0.07297208,0.95867234
bb09b488-e875-448b-9801-156d15b3962c,1775725052614696338,-1.121521,3.3950806,-2.9468536,-0.09277344,-0.5395508,0.8295898,5.436345375391347,-31.531862428307278,10.272321201808417,-0.27439836,0.021159215,0.073224545,0.9585906
bb09b488-e875-448b-9801-156d15b3962c,1775725052624368338,-1.7318726,3.6392212,-2.9468536,-0.0961914,-0.5620117,0.82031244,5.461175266315723,-31.56760082107978,10.305863563799454,-0.27471867,0.02125565,0.073423825,0.9584815
bb09b488-e875-448b-9801-156d15b3962c,1775725052634040338,-1.9760132,3.578186,-2.8858185,-0.10742187,-0.55126953,0.8291015,5.4886549068959,-31.601948266493626,10.282703290345582,-0.2750185,0.021511318,0.07314317,0.9584113
bb09b488-e875-448b-9801-156d15b3962c,1775725052643712338,-2.0980835,3.15094,-2.8858185,-0.09179686,-0.5449219,0.8364258,5.5102745057601545,-31.63454641305206,10.30272401173809,-0.27530804,0.021615827,0.07323867,0.9583185
bb09b488-e875-448b-9801-156d15b3962c,1775725052653285338,-2.281189,2.8457642,-2.5234222,-0.109375,-0.5444336,0.8344726,5.531636407673288,-31.669115045384686,10.37709825989153,-0.27562413,0.021585606,0.073787935,0.95818615
bb09b488-e875-448b-9801-156d15b3962c,1775725052662860338,-2.4032593,1.625061,-1.909256,-0.0961914,-0.55566406,0.8388671,5.54769106386043,-31.70187406638383,10.436829446766936,-0.27591896,0.021547427,0.07422842,0.95806813
bb09b488-e875-448b-9801-156d15b3962c,1775725052672435338,-2.6493073,0.95176697,-1.909256,-0.105957024,-0.5522461,0.8359375,5.554869879844389,-31.737281516534125,10.506499430222108,-0.27623194,0.02140843,0.074771546,0.9579388
bb09b488-e875-448b-9801-156d15b3962c,1775725052682010338,-2.8915405,0.16021729,-1.5468597,-0.09033203,-0.5600586,0.8339843,5.559539086013673,-31.776080221361838,10.597170345177775,-0.27657536,0.021194372,0.07549397,0.9577878
bb09b488-e875-448b-9801-156d15b3962c,1775725052691585338,-3.0136108,0.038146973,-1.2989044,-0.079589844,-0.55566406,0.8339843,5.560167913527181,-31.81822165087008,10.656135392795948,-0.27693793,0.02101964,0.07595886,0.9576501
bb09b488-e875-448b-9801-156d15b3962c,1775725052699552338,-2.9525757,0.038146973,-1.1806488,-0.09277343,-0.5566406,0.8310547,5.560124807594014,-31.86121124838461,10.709086399211332,-0.27730587,0.020852711,0.07637446,0.95751417
bb09b488-e875-448b-9801-156d15b3962c,1775725052707519338,-3.320694,-0.207901,-0.875473,-0.09472656,-0.56103516,0.8305664,5.5625318588062,-31.90305437379385,10.761059146294249,-0.27766562,0.02070932,0.07677655,0.9573809
bb09b488-e875-448b-9801-156d15b3962c,1775725052715486338,-3.320694,-0.69618225,-0.69236755,-0.083007805,-0.57666016,0.8295898,5.5612305033481055,-31.944611668795904,10.826047930397072,-0.27802268,0.020503301,0.07729641,0.9572398
bb09b488-e875-448b-9801-156d15b3962c,1775725052723453338,-3.074646,-0.45013428,-0.749588,-0.0703125,-0.55908203,0.83837885,5.555254646480168,-31.988946971241365,10.905850034320874,-0.27840215,0.02021932,0.077949464,0.95708257
bb09b488-e875-448b-9801-156d15b3962c,1775725052731420338,-2.8915405,0.2822876,-0.81062317,-0.080566406,-0.55908203,0.840332,5.5481861448027425,-32.02717964225209,10.959157865565386,-0.27872512,0.019995749,0.07838763,0.9569574
bb09b488-e875-448b-9801-156d15b3962c,1775725052739387338,-2.3441315,0.40245056,-0.69236755,-0.07519531,-0.5566406,0.8466796,5.5497730915039885,-32.05949329544845,11.012287719217431,-0.27900454,0.019850042,0.07880693,0.9568445
bb09b488-e875-448b-9801-156d15b3962c,1775725052749008338,-1.7929077,0.34332275,-0.875473,-0.07373047,-0.55566406,0.8359375,5.546388471816172,-32.08625166071287,11.057466906959474,-0.27923283,0.019687075,0.0791754,0.95675087
bb09b488-e875-448b-9801-156d15b3962c,1775725052758629338,-1.6098022,0.77056885,-0.9326935,-0.08203124,-0.55859375,0.8393554,5.544636827077577,-32.110739559344,11.113059762850606,-0.279445,0.019514274,0.07962821,0.9566548
bb09b488-e875-448b-9801-156d15b3962c,1775725052768250338,-1.3046265,0.46539307,-0.57029724,-0.09472656,-0.5629883,0.83789057,5.545961001123739,-32.13330504783829,11.183149176883404,-0.27964565,0.019333363,0.08019568,0.9565524
bb09b488-e875-448b-9801-156d15b3962c,1775725052777871338,-1.0604858,0.5264282,-0.26130676,-0.07910156,-0.5761719,0.8476562,5.548128325175625,-32.14571626307914,11.272227790588857,-0.27976543,0.019122409,0.08092599,0.95646006
bb09b488-e875-448b-9801-156d15b3962c,1775725052787492338,-1.1234283,-0.08583069,-0.078201294,-0.0727539,-0.5517578,0.84374994,5.544669648812995,-32.157031377295624,11.34838800726965,-0.27986977,0.018896911,0.08156283,0.95637983
bb09b488-e875-448b-9801-156d15b3962c,1775725052796930338,-0.45013428,0.2822876,0.7724762,-0.07421875,-0.55908203,0.84619135,5.538625752152754,-32.173266761520495,11.450960773191587,-0.28001732,0.018580496,0.08242317,0.956269
bb09b488-e875-448b-9801-156d15b3962c,1775725052806368338,0.15830994,-0.207901,1.0204315,-0.08349609,-0.5629883,0.8481445,5.540979618872954,-32.1824271799429,11.509365758465908,-0.28010467,0.018448658,0.082898885,0.95620483
bb09b488-e875-448b-9801-156d15b3962c,1775725052815806338,0.5874634,-0.20599365,1.2607574,-0.07226562,-0.5683594,0.8422851,5.545430063866806,-32.190578923581775,11.603801511662438,-0.28019083,0.018247098,0.083670706,0.95611614
bb09b488-e875-448b-9801-156d15b3962c,1775725052825244338,1.0757446,-0.022888184,1.8138885,-0.06933594,-0.55810547,0.8413086,5.552222128307605,-32.18959377720771,11.653022965374193,-0.28019542,0.018184364,0.084065415,0.95608133
bb09b488-e875-448b-9801-156d15b3962c,1775725052834682338,1.1348724,0.28038025,2.4852753,-0.08203124,-0.5571289,0.8320312,5.564613423325712,-32.19119424207453,11.725876054884644,-0.2802294,0.018108046,0.084641896,0.95602196
bb09b488-e875-448b-9801-156d15b3962c,1775725052844465338,1.0757446,0.77056885,2.790451,-0.06445312,-0.5625,0.8417968,5.5840795650393495,-32.191810891117065,11.831536345695154,-0.2802658,0.018011447,0.085475415,0.95593965
bb09b488-e875-448b-9801-156d15b3962c,1775725052854248338,1.0757446,0.77056885,3.0956268,-0.08349609,-0.5463867,0.840332,5.601691249970648,-32.19214694469827,11.932011160665107,-0.28029755,0.017912276,0.08627026,0.9558608
bb09b488-e875-448b-9801-156d15b3962c,1775725052864031338,1.077652,0.40245056,3.3397675,-0.08740234,-0.57177734,0.8188476,5.625601036491323,-32.188628354428026,12.031127659541603,-0.28030184,0.017872754,0.08704084,0.9557904
bb09b488-e875-448b-9801-156d15b3962c,1775725052873814338,1.3198853,-0.022888184,3.950119,-0.08886718,-0.5727539,0.836914,5.649697520154984,-32.19330438441191,12.096513182064262,-0.28036928,0.017909106,0.08752414,0.9557258
bb09b488-e875-448b-9801-156d15b3962c,1775725052883597338,0.6465912,-0.57411194,4.678726,-0.078613274,-0.5761719,0.8549804,5.666645450397423,-32.19909995844002,12.179166588532881,-0.28044337,0.017842378,0.08816813,0.95564616
bb09b488-e875-448b-9801-156d15b3962c,1775725052893164338,0.28038025,-1.4247894,5.475998,-0.076171875,-0.5908203,0.852539,5.698612279904357,-32.21605062547198,12.371741186101456,-0.28063887,0.017620284,0.08968431,0.9554517
bb09b488-e875-448b-9801-156d15b3962c,1775725052902734338,-0.14686584,-1.7337799,6.4525604,-0.082519524,-0.5786133,0.85351557,5.719084229877282,-32.2280584978845,12.46797763658996,-0.28076953,0.01754291,0.0904284,0.9553446
bb09b488-e875-448b-9801-156d15b3962c,1775725052912304338,-0.38719177,-1.7337799,6.8798065,-0.083007805,-0.5703125,0.8359375,5.740492031506312,-32.241561686893,12.585365179290255,-0.28091663,0.017419718,0.09134533,0.9552164
bb09b488-e875-448b-9801-156d15b3962c,1775725052921874338,-0.51116943,-1.4877319,7.2460175,-0.064453125,-0.5776367,0.8354492,5.759274610115226,-32.25915167442635,12.718975128446303,-0.28109804,0.017230276,0.09240089,0.95506495
bb09b488-e875-448b-9801-156d15b3962c,1775725052931444338,-0.2670288,-1.121521,7.368088,-0.054687496,-0.5756836,0.82177734,5.7773251187898795,-32.27459912345231,12.871862746493928,-0.28126383,0.01698927,0.09362009,0.9549017
bb09b488-e875-448b-9801-156d15b3962c,1775725052943513338,-0.32806396,-0.63323975,7.551193,-0.06347656,-0.57373047,0.8447265,5.802727942978154,-32.28570617128144,13.008738738951257,-0.28139716,0.016853068,0.09469054,0.9547593
bb09b488-e875-448b-9801-156d15b3962c,1775725052955582338,-0.2670288,-0.022888184,7.1849823,-0.07470703,-0.56640625,0.8476562,5.834854276398046,-32.29479096196119,13.12719219200855,-0.28151667,0.016820014,0.095592156,0.9546348
bb09b488-e875-448b-9801-156d15b3962c,1775725052967651338,0.28038025,0.6465912,7.1849823,-0.062011715,-0.5732422,0.8354492,5.871842181782857,-32.30481344729364,13.2216125044421,-0.28164473,0.01688526,0.09628077,0.95452666
bb09b488-e875-448b-9801-156d15b3962c,1775725052979720338,0.34332275,1.1367798,7.429123,-0.06689453,-0.5810547,0.82519525,5.913725739195861,-32.31517373655731,13.310851548704905,-0.28177923,0.017003436,0.09691377,0.9544208
bb09b488-e875-448b-9801-156d15b3962c,1775725052991654338,-0.63323975,1.6860962,6.998062,-0.08154297,-0.57666016,0.82275385,5.960885106126255,-32.332858500059,13.416572007344946,-0.28198177,0.0171167,0.097665615,0.9542823
bb09b488-e875-448b-9801-156d15b3962c,1775725053003588338,-1.2435913,2.7236938,6.8798065,-0.0727539,-0.56689453,0.82275385,6.010591704300145,-32.351440131137416,13.543818324434826,-0.28219756,0.017196769,0.098589465,0.95412207
bb09b488-e875-448b-9801-156d15b3962c,1775725053015522338,-1.914978,3.3340454,6.3266754,-0.07714842,-0.56933594,0.8261719,6.069160014463458,-32.379612373053725,13.668036090832414,-0.2825006,0.017346798,0.09945887,0.95393944
bb09b488-e875-448b-9801-156d15b3962c,1775725053025284338,-2.4662018,3.698349,5.5332184,-0.07519531,-0.5732422,0.8129882,6.129398819340773,-32.410764168243176,13.783461712105677,-0.282829,0.01752834,0.10024823,0.95375615
bb09b488-e875-448b-9801-156d15b3962c,1775725053035046338,-3.1375885,4.3125153,5.2318573,-0.06933593,-0.5571289,0.8295898,6.189725411082417,-32.44870879008535,13.90721973135442,-0.28321558,0.017681528,0.101101086,0.95354855
bb09b488-e875-448b-9801-156d15b3962c,1775725053044808338,-4.173279,4.310608,4.6215057,-0.05566406,-0.55078125,0.8022461,6.24352319361464,-32.493356427015584,14.013840143033676,-0.28364977,0.01781417,0.10182179,0.9533403
bb09b488-e875-448b-9801-156d15b3962c,1775725053052494338,-6.3095093,4.9209595,2.3021698,-0.06933593,-0.5522461,0.81152344,6.338085005257024,-32.61057387203584,14.156468044600699,-0.28472763,0.018111162,0.102685034,0.95292073
bb09b488-e875-448b-9801-156d15b3962c,1775725053060182338,-7.041931,5.2871704,0.95939636,-0.05810546,-0.53808594,0.7841796,6.3822491100359775,-32.68008072735759,14.21977227780915,-0.28535292,0.018239748,0.10304847,0.952692
bb09b488-e875-448b-9801-156d15b3962c,1775725053067870338,-8.142471,5.4683685,-0.57029724,-0.07373047,-0.5390625,0.77539057,6.426193340388547,-32.76077033520592,14.285694611704056,-0.28607103,0.018345997,0.103424884,0.95243376
bb09b488-e875-448b-9801-156d15b3962c,1775725053075558338,-9.727478,5.592346,-1.9702911,-0.06689453,-0.5498047,0.7788086,6.458500038251778,-32.858765196081606,14.319084390861654,-0.28691655,0.01841557,0.10354584,0.9521649
bb09b488-e875-448b-9801-156d15b3962c,1775725053087270338,-11.133194,5.4683685,-3.435135,-0.068359375,-0.55371094,0.77246094,6.486557193984731,-32.9738673628468,14.319116234966847,-0.28789416,0.018512782,0.103386365,0.9518852
bb09b488-e875-448b-9801-156d15b3962c,1775725053098982338,-12.779236,5.2261353,-4.4765472,-0.08642578,-0.55615234,0.77050775,6.514019469889436,-33.10913066073751,14.3369864331303,-0.28904048,0.018536093,0.1033602,0.9515402
bb09b488-e875-448b-9801-156d15b3962c,1775725053110694338,-13.757706,4.9800873,-5.5713654,-0.086914055,-0.5727539,0.78369135,6.534814519421381,-33.25051232277724,14.34351704122121,-0.29022905,0.018524995,0.1032512,0.95119035
bb09b488-e875-448b-9801-156d15b3962c,1775725053120756338,-14.123917,4.1866302,-6.181717,-0.09765624,-0.5878906,0.81689453,6.549940021610341,-33.39556116859929,14.336537015955171,-0.29144016,0.018496584,0.103041,0.95084333
bb09b488-e875-448b-9801-156d15b3962c,1775725053130820338,-13.999939,3.15094,-6.242752,-0.114257805,-0.5961914,0.8193359,6.55759868220835,-33.54058782707758,14.328396864492776,-0.2926437,0.018409252,0.10283983,0.9504971
bb09b488-e875-448b-9801-156d15b3962c,1775725053140884338,-13.998032,1.8672943,-6.242752,-0.121093735,-0.60839844,0.8032226,6.5584300788307965,-33.68734932371296,14.335011698255563,-0.2938573,0.018225515,0.102776855,0.9501329
bb09b488-e875-448b-9801-156d15b3962c,1775725053148556338,-14.36615,-0.45013428,-5.2051544,-0.1328125,-0.61865234,0.809082,6.548149385890972,-33.992691119894985,14.407589694716329,-0.29637897,0.017591063,0.10316344,0.94931936
bb09b488-e875-448b-9801-156d15b3962c,1775725053156230338,-14.123917,-1.2454987,-4.716873,-0.123535156,-0.63427734,0.8120117,6.5328313964478895,-34.14742926329264,14.447454475411345,-0.29764718,0.017176615,0.10341067,0.9489032
bb09b488-e875-448b-9801-156d15b3962c,1775725053163904338,-13.755798,-1.6708374,-4.350662,-0.105957024,-0.62597656,0.81152344,6.511715822289986,-34.29436578193766,14.473584536229142,-0.29884306,0.016758509,0.10356539,0.9485178
bb09b488-e875-448b-9801-156d15b3962c,1775725053171578338,-13.023376,-2.4032593,-3.6182404,-0.11279296,-0.6347656,0.8242187,6.488190333235042,-34.43707830507684,14.49956667012243,-0.30000132,0.016325463,0.10372865,0.9481418
bb09b488-e875-448b-9801-156d15b3962c,1775725053183224338,-12.046814,-3.1356812,-2.702713,-0.114746094,-0.63671875,0.8310547,6.4657383503796355,-34.56727640121269,14.529080806787007,-0.30105737,0.015906587,0.10392838,0.9477922
bb09b488-e875-448b-9801-156d15b3962c,1775725053194870338,-10.887146,-4.0512085,-2.0923615,-0.11669921,-0.63183594,0.8374023,6.436003945942766,-34.68596408701357,14.591206980498882,-0.3020159,0.015354912,0.10442619,0.9474415
bb09b488-e875-448b-9801-156d15b3962c,1775725053206516338,-9.973526,-4.6634674,-1.115799,-0.10058594,-0.6333008,0.8349609,6.397581414454109,-34.795223650298105,14.641189877316922,-0.30288652,0.014773987,0.104854114,0.94712543
bb09b488-e875-448b-9801-156d15b3962c,1775725053216775338,-8.811951,-4.295349,-0.57029724,-0.0883789,-0.6254883,0.8232421,6.361778050705106,-34.89289926282103,14.669092663952013,-0.3036608,0.0142866075,0.10510207,0.9468574
bb09b488-e875-448b-9801-156d15b3962c,1775725053227034338,-7.5912476,-4.600525,-0.26130676,-0.08154297,-0.6269531,0.8183593,6.321765932235091,-34.979286125188324,14.713564797430486,-0.30433995,0.01373384,0.105507284,0.9466023
bb09b488-e875-448b-9801-156d15b3962c,1775725053237293338,-6.3095093,-4.173279,-0.017166138,-0.06835937,-0.62597656,0.81689453,6.284291577056278,-35.05324993110449,14.782246058118568,-0.30492154,0.013152262,0.10611573,0.9463552
bb09b488-e875-448b-9801-156d15b3962c,1775725053244917338,-4.3563843,-2.9525757,-1.2989044,-0.06835937,-0.6279297,0.80078125,6.198018220212466,-35.18013073275436,14.842105687093468,-0.3058909,0.012126467,0.10673991,0.94598556
bb09b488-e875-448b-9801-156d15b3962c,1775725053252542338,-4.0512085,-1.7929077,-1.8520355,-0.0625,-0.6347656,0.7998046,6.161324691593074,-35.24115662078129,14.805896517662475,-0.3063546,0.011846309,0.1064912,0.94586754
bb09b488-e875-448b-9801-156d15b3962c,1775725053260167338,-3.5648346,-0.7572174,-2.5234222,-0.062988274,-0.62158203,0.8076172,6.130424530137262,-35.29400652144958,14.828547819958684,-0.30676246,0.011466654,0.10671947,0.94571435
bb09b488-e875-448b-9801-156d15b3962c,1775725053267792338,-2.708435,-0.6942749,-3.1909943,-0.06640625,-0.6171875,0.8032226,6.098558781124488,-35.34029572236025,14.84312971112536,-0.3071145,0.011108524,0.10688901,0.94558525
bb09b488-e875-448b-9801-156d15b3962c,1775725053279368338,-1.7318726,-0.022888184,-3.4999847,-0.06542969,-0.63378906,0.8017578,6.073101112694874,-35.37999562915134,14.842096410453019,-0.3074168,0.010853121,0.1069178,0.9454867
bb09b488-e875-448b-9801-156d15b3962c,1775725053290944338,-1.914978,-0.022888184,-3.8051605,-0.067871094,-0.6245117,0.79443353,6.046635370357169,-35.418051351020864,14.845876582143545,-0.30770504,0.010578516,0.10699041,0.94538784
bb09b488-e875-448b-9801-156d15b3962c,1775725053302520338,-2.3441315,0.22315979,-3.4999847,-0.08105469,-0.6171875,0.77734375,6.028508003445929,-35.463323302036684,14.865890188566118,-0.30806178,0.010320339,0.10716905,0.9452543
bb09b488-e875-448b-9801-156d15b3962c,1775725053312730338,-2.7694702,0.34332275,-2.8858185,-0.094238274,-0.61621094,0.78222656,6.0176003733758625,-35.506508720495994,14.882786330479925,-0.30840772,0.010132542,0.10730421,0.9451282
bb09b488-e875-448b-9801-156d15b3962c,1775725053322939338,-3.1375885,0.28038025,-1.7261505,-0.09423828,-0.6191406,0.796875,6.0163659361424795,-35.55338869121243,14.894379894242682,-0.30879253,0.010034236,0.107366726,0.94499654
bb09b488-e875-448b-9801-156d15b3962c,1775725053333148338,-3.7460327,0.64849854,-0.749588,-0.100097656,-0.6044922,0.7963867,6.018365854415578,-35.598666976178954,14.889314573660567,-0.3091657,0.010009414,0.10728436,0.9448841
bb09b488-e875-448b-9801-156d15b3962c,1775725053340828338,-4.7836304,1.3198853,0.95939636,-0.11279296,-0.6269531,0.8037109,6.063466034873683,-35.70402047147241,14.959594173167748,-0.31007886,0.010063118,0.107659675,0.94454163
bb09b488-e875-448b-9801-156d15b3962c,1775725053348508338,-5.332947,2.2354126,2.0542145,-0.10937499,-0.62060547,0.8032226,6.1100024899452965,-35.76165265523968,15.00812935418218,-0.31059977,0.010244771,0.10788837,0.9443424
bb09b488-e875-448b-9801-156d15b3962c,1775725053356188338,-5.2108765,2.8457642,3.0345917,-0.098632805,-0.6352539,0.81445307,6.160839534094529,-35.822281568799326,15.060624541728838,-0.31114975,0.010446856,0.10813507,0.9441309
bb09b488-e875-448b-9801-156d15b3962c,1775725053363868338,-4.968643,3.8814545,3.4618378,-0.10449218,-0.6352539,0.81103516,6.224348768824504,-35.8817317470277,15.121473892960692,-0.31170288,0.010731409,0.108416386,0.943913
bb09b488-e875-448b-9801-156d15b3962c,1775725053375384338,-4.9057007,4.5547485,4.4384003,-0.122070305,-0.6376953,0.8017578,6.305065985349308,-35.940397104526504,15.202388328936806,-0.312268,0.011103209,0.10881588,0.9436759
bb09b488-e875-448b-9801-156d15b3962c,1775725053386900338,-5.4569244,4.858017,5.109787,-0.1040039,-0.6542969,0.81005853,6.388508715855118,-36.002911971484785,15.293195258278924,-0.31286862,0.011464608,0.1092852,0.9434184
bb09b488-e875-448b-9801-156d15b3962c,1775725053398416338,-4.4784546,5.04303,5.2928925,-0.10156249,-0.65966797,0.8085937,6.472677438451544,-36.06183220659606,15.389680995561807,-0.31344151,0.011819785,0.109801054,0.9431639
bb09b488-e875-448b-9801-156d15b3962c,1775725053408617338,-3.6239624,5.2261353,5.475998,-0.09960937,-0.63964844,0.8139648,6.560672011780716,-36.10450997542144,15.480531682675018,-0.31388503,0.012241306,0.11027247,0.94295603
bb09b488-e875-448b-9801-156d15b3962c,1775725053418818338,-3.2577515,4.8599243,5.2318573,-0.10058594,-0.6425781,0.8271484,6.64663373016922,-36.14050788939197,15.570494075723172,-0.31427237,0.012656194,0.11074689,0.9427659
bb09b488-e875-448b-9801-156d15b3962c,1775725053429019338,-3.320694,4.12941,5.109787,-0.102050774,-0.65234375,0.8520507,6.722937411405927,-36.173469752036176,15.659498410148895,-0.31462598,0.012997423,0.11124179,0.942585
bb09b488-e875-448b-9801-156d15b3962c,1775725053436674338,-2.0370483,4.0664673,3.4618378,-0.0961914,-0.63964844,0.86181635,6.84479280591229,-36.22091691624212,15.778749932141926,-0.3151466,0.0136106685,0.1118471,0.9423308
bb09b488-e875-448b-9801-156d15b3962c,1775725053444328338,-1.001358,3.3359528,2.5424957,-0.09472656,-0.6333008,0.85644525,6.891587305592573,-36.22886993603142,15.819592449901451,-0.31526226,0.01387279,0.11204737,0.9422645
bb09b488-e875-448b-9801-156d15b3962c,1775725053451982338,0.3414154,2.2335052,1.8138885,-0.091308594,-0.62158203,0.8476562,6.918317956558886,-36.22708656536875,15.857003052483783,-0.31527838,0.013991984,0.112282984,0.9422293
bb09b488-e875-448b-9801-156d15b3962c,1775725053459636338,0.95176697,1.8672943,0.6542206,-0.083007805,-0.6152344,0.8417968,6.930138569084529,-36.21863403409473,15.895305569398955,-0.31522554,0.01399484,0.11257276,0.94221234
bb09b488-e875-448b-9801-156d15b3962c,1775725053471383338,1.4400482,1.1997223,-0.26130676,-0.08203124,-0.61572266,0.8237304,6.936878785063458,-36.20649038972724,15.937472880536047,-0.315138,0.013950172,0.112911515,0.94220173
bb09b488-e875-448b-9801-156d15b3962c,1775725053483130338,1.7490387,0.09727478,-1.3637543,-0.098144524,-0.5908203,0.82519525,6.9300909696845805,-36.19008660520433,15.960238994488547,-0.31499994,0.01385327,0.11313167,0.9422229
bb09b488-e875-448b-9801-156d15b3962c,1775725053494877338,1.871109,-0.7572174,-1.9702911,-0.10449218,-0.5961914,0.81591797,6.910021608759682,-36.17477081520086,15.962344782239718,-0.31485513,0.013702547,0.11321749,0.9422632
bb09b488-e875-448b-9801-156d15b3962c,1775725053504965338,1.9302368,-1.121521,-2.3403168,-0.088378906,-0.5703125,0.8291015,6.8852028678767905,-36.15371525938684,15.967737536393601,-0.31465906,0.01351126,0.11334832,0.94231576
bb09b488-e875-448b-9801-156d15b3962c,1775725053515055338,2.357483,-1.5487671,-2.9468536,-0.09277343,-0.57714844,0.85888666,6.847722065171179,-36.12234168612095,15.971580972073006,-0.3143658,0.01323361,0.113510005,0.9423981
bb09b488-e875-448b-9801-156d15b3962c,1775725053525145338,2.904892,-2.0389557,-3.6182404,-0.08789062,-0.57177734,0.84374994,6.801100172885557,-36.082664607989116,15.91851178305482,-0.31398904,0.013047565,0.113235615,0.9425593
bb09b488-e875-448b-9801-156d15b3962c,1775725053532807338,3.6392212,-3.501892,-4.6596527,-0.09765624,-0.5629883,0.8442382,6.678777571407167,-35.99318688139072,15.86177648623346,-0.31312972,0.01231302,0.11318014,0.9428616
bb09b488-e875-448b-9801-156d15b3962c,1775725053540469338,3.7593842,-4.3582916,-4.8389435,-0.10107421,-0.5673828,0.83837885,6.607513156395135,-35.94595134402488,15.844648560581062,-0.31267086,0.01183466,0.113273814,0.9430088
bb09b488-e875-448b-9801-156d15b3962c,1775725053548131338,3.4561157,-4.600525,-4.716873,-0.10498047,-0.55371094,0.8305664,6.537681819354587,-35.903089841514394,15.827298070087938,-0.31224912,0.011362748,0.1133575,0.94314426
bb09b488-e875-448b-9801-156d15b3962c,1775725053555793338,3.4561157,-4.966736,-5.083084,-0.09033203,-0.55126953,0.8237304,6.4566259654154505,-35.85744737286764,15.797891754404,-0.3117923,0.010834562,0.11337428,0.9432996
bb09b488-e875-448b-9801-156d15b3962c,1775725053567408338,3.2730103,-4.722595,-5.083084,-0.09423828,-0.5493164,0.83789057,6.377843649511572,-35.81006287402498,15.76459853987208,-0.31132317,0.010337484,0.11335364,0.9434626
bb09b488-e875-448b-9801-156d15b3962c,1775725053579023338,3.7612915,-3.9291382,-5.3272247,-0.07812499,-0.54248047,0.8374023,6.3008652394860105,-35.758257250874166,15.724339813164491,-0.31081903,0.009879369,0.11327367,0.94364333
bb09b488-e875-448b-9801-156d15b3962c,1775725053590638338,4.310608,-3.1356812,-5.51033,-0.08740234,-0.53027344,0.8261719,6.23306435993105,-35.701757998872914,15.654725011627853,-0.31028312,0.009581781,0.112930104,0.94386387
bb09b488-e875-448b-9801-156d15b3962c,1775725053600916338,4.552841,-3.0155182,-5.5713654,-0.09179687,-0.5107422,0.8325195,6.165970401660587,-35.634919985178605,15.588254705585447,-0.30966365,0.009293795,0.112618014,0.9441075
bb09b488-e875-448b-9801-156d15b3962c,1775725053611195338,4.005432,-3.3798218,-5.38826,-0.09228515,-0.515625,0.84619135,6.103404565335603,-35.5732538449418,15.539869260396074,-0.3090926,0.008986897,0.11243765,0.944319
bb09b488-e875-448b-9801-156d15b3962c,1775725053621474338,3.7002563,-3.6239624,-4.8389435,-0.09374999,-0.49951172,0.8393554,6.039585853630897,-35.51321464443758,15.499098456139407,-0.30853435,0.008646465,0.11232136,0.94451857
bb09b488-e875-448b-9801-156d15b3962c,1775725053629082338,2.904892,-5.64003,-3.3740997,-0.098632805,-0.50683594,0.83154297,5.910487376395177,-35.39491720153094,15.47993205773129,-0.30743545,0.0077822646,0.11260341,0.94485074
bb09b488-e875-448b-9801-156d15b3962c,1775725053636690338,2.111435,-6.921768,-2.828598,-0.08544922,-0.5161133,0.8422851,5.829530798347358,-35.346293065973605,15.473891240280707,-0.30695626,0.0071917977,0.11280847,0.94498676
bb09b488-e875-448b-9801-156d15b3962c,1775725053644298338,1.3179779,-7.287979,-2.275467,-0.08398437,-0.51171875,0.8310547,5.752698896772051,-35.30315713455563,15.458008327092827,-0.30652544,0.0066545894,0.112916455,0.94511765
bb09b488-e875-448b-9801-156d15b3962c,1775725053651906338,0.46539307,-7.713318,-1.7261505,-0.08544921,-0.5185547,0.8354492,5.6690536706545895,-35.26886323648914,15.46213315385166,-0.3061615,0.0059964387,0.11320035,0.94520605
bb09b488-e875-448b-9801-156d15b3962c,1775725053663478338,-0.207901,-7.8983307,-1.2378693,-0.07324219,-0.5048828,0.8481445,5.590342742185319,-35.23889948666112,15.479286220324848,-0.30583835,0.005338722,0.1135748,0.9452697
bb09b488-e875-448b-9801-156d15b3962c,1775725053675050338,-0.38719177,-7.7762604,-1.2989044,-0.05810546,-0.50390625,0.8417968,5.505396598107209,-35.20821937652937,15.499057843279335,-0.30550283,0.004623467,0.11398764,0.9453323
bb09b488-e875-448b-9801-156d15b3962c,1775725053686622338,-0.81825256,-7.287979,-1.0585785,-0.058593743,-0.5,0.85107416,5.424612998216832,-35.18161861912865,15.491788088603554,-0.3052036,0.0040094918,0.11416283,0.9454106
bb09b488-e875-448b-9801-156d15b3962c,1775725053696759338,-1.2435913,-6.248474,-1.6651154,-0.05224609,-0.5161133,0.8339843,5.348595668925716,-35.1643453854417,15.479013472803782,-0.30498546,0.003437779,0.11427265,0.94547
bb09b488-e875-448b-9801-156d15b3962c,1775725053706896338,-2.161026,-5.9452057,-1.6040802,-0.07421875,-0.5209961,0.8388671,5.275572435757725,-35.15418844494605,15.467347783869243,-0.30482882,0.0028788997,0.11437818,0.9455096
bb09b488-e875-448b-9801-156d15b3962c,1775725053717033338,-2.7694702,-5.760193,-2.0923615,-0.054199215,-0.5307617,0.82519525,5.20837334015543,-35.156911345006876,15.4630178210873,-0.304784,0.0023325793,0.11451921,0.94550854
bb09b488-e875-448b-9801-156d15b3962c,1775725053724742338,-4.0512085,-4.234314,-2.1533966,-0.058593746,-0.5390625,0.8066406,5.088543642429054,-35.194912284473986,15.457262907153499,-0.30497634,0.0013122717,0.11476301,0.9454189
bb09b488-e875-448b-9801-156d15b3962c,1775725053732454338,-5.027771,-3.440857,-2.3975372,-0.0727539,-0.55615234,0.8022461,5.048443101673906,-35.23288711497119,15.454937968793162,-0.30524826,0.00094080996,0.1148233,0.9453243
bb09b488-e875-448b-9801-156d15b3962c,1775725053740166338,-5.760193,-2.4642944,-2.6416779,-0.06884765,-0.55615234,0.8066406,5.007386900183688,-35.27577544493424,15.445812305798858,-0.30555952,0.00057362765,0.11482672,0.9452236
bb09b488-e875-448b-9801-156d15b3962c,1775725053747878338,-6.0653687,-1.3046265,-2.8858185,-0.058105465,-0.5541992,0.81445307,4.973530870379577,-35.32406329905551,15.439535934632191,-0.30592236,0.0002517132,0.11483081,0.9451059
bb09b488-e875-448b-9801-156d15b3962c,1775725053759553338,-6.3095093,-0.5722046,-3.3740997,-0.076660156,-0.56884766,0.824707,4.952951056457342,-35.371696708879504,15.434472362089442,-0.3062931,3.6957674e-05,0.114810094,0.94498837
bb09b488-e875-448b-9801-156d15b3962c,1775725053771228338,-6.4926147,-0.1449585,-3.3168793,-0.079589844,-0.57470703,0.82275385,4.939735308691225,-35.428510881759145,15.431500756221839,-0.3067466,-0.00013387669,0.11478052,0.94484484
bb09b488-e875-448b-9801-156d15b3962c,1775725053782903338,-6.433487,0.22315979,-3.6830902,-0.067382805,-0.57421875,0.8134765,4.919504310665053,-35.48670555069115,15.393942944843378,-0.30720446,-0.0002714619,0.11448373,0.94473207
bb09b488-e875-448b-9801-156d15b3962c,1775725053793369338,-6.614685,0.5264282,-3.862381,-0.063476555,-0.5932617,0.8105468,4.904463809124661,-35.54578011533369,15.317089781109637,-0.30767485,-0.00026147533,0.113848664,0.9446557
bb09b488-e875-448b-9801-156d15b3962c,1775725053803833338,-6.614685,0.64849854,-3.9234161,-0.0727539,-0.59765625,0.81103516,4.891002600159135,-35.61309425744456,15.293647466614463,-0.3082144,-0.00039145723,0.11364404,0.94450444
bb09b488-e875-448b-9801-156d15b3962c,1775725053814297338,-6.6127777,1.5621185,-4.0454865,-0.064453125,-0.5942383,0.8076172,4.883737239936385,-35.679333726886895,15.288051851363035,-0.30875114,-0.00051689614,0.11357071,0.9443379
bb09b488-e875-448b-9801-156d15b3962c,1775725053821712338,-6.614685,3.6392212,-4.6596527,-0.08154297,-0.59765625,0.80566406,4.887940718706833,-35.81178516807402,15.267179697428244,-0.3098427,-0.0005870089,0.113293804,0.94401354
bb09b488-e875-448b-9801-156d15b3962c,1775725053829125338,-6.433487,4.1866302,-4.8389435,-0.080566406,-0.59472656,0.80126953,4.902302833235464,-35.87704672970988,15.244835412688442,-0.3103926,-0.00048751384,0.1130247,0.9438652
bb09b488-e875-448b-9801-156d15b3962c,1775725053836538338,-7.1640015,4.371643,-4.4765472,-0.098632805,-0.60595703,0.81689453,4.924625915079254,-35.945629821308934,15.241934088240127,-0.31097737,-0.0003790781,0.112891644,0.9436887
bb09b488-e875-448b-9801-156d15b3962c,1775725053843951338,-7.041931,4.737854,-3.988266,-0.09228515,-0.62109375,0.7963867,4.958599912698583,-36.02165869367088,15.226410014378484,-0.31163454,-0.00014947169,0.11261741,0.9435047
bb09b488-e875-448b-9801-156d15b3962c,1775725053855511338,-7.1640015,4.1275024,-3.1909943,-0.10302734,-0.62109375,0.80419916,4.994949329560219,-36.0970626192289,15.188639732066662,-0.31228864,0.0001611337,0.11215364,0.94334364
bb09b488-e875-448b-9801-156d15b3962c,1775725053867071338,-7.4691772,3.8833618,-2.1533966,-0.11572264,-0.61376953,0.8125,5.0407753156696735,-36.17236323961131,15.19592493670039,-0.31295097,0.00042712223,0.112034574,0.94313824
bb09b488-e875-448b-9801-156d15b3962c,1775725053878631338,-7.58934,2.7217865,-0.6275177,-0.117675774,-0.6220703,0.80468744,5.08742269454191,-36.24814679486776,15.211527221407424,-0.3136179,0.0006762771,0.11198075,0.9429229
bb09b488-e875-448b-9801-156d15b3962c,1775725053888818338,-7.5912476,2.1133423,0.41007996,-0.10498047,-0.63964844,0.8139648,5.134230452137071,-36.3215252545611,15.226150989470758,-0.3142651,0.00093202014,0.11191957,0.94271445
bb09b488-e875-448b-9801-156d15b3962c,1775725053899007338,-7.041931,1.625061,1.5087128,-0.10449218,-0.62597656,0.8105468,5.174981478982903,-36.391739901910675,15.307042327979502,-0.31488094,0.00095938984,0.112421766,0.94244915
bb09b488-e875-448b-9801-156d15b3962c,1775725053909196338,-6.7977905,2.1743774,2.23732,-0.09863281,-0.6196289,0.81689453,5.224182802530514,-36.455728250165365,15.390609198800055,-0.31545413,0.0010555414,0.11292651,0.94219697
bb09b488-e875-448b-9801-156d15b3962c,1775725053919377338,-6.860733,2.538681,3.2787323,-0.09716796,-0.6245117,0.82226557,5.334217763218731,-36.57782329077541,15.524139223987396,-0.31656387,0.0014406545,0.1136297,0.9417396
bb09b488-e875-448b-9801-156d15b3962c,1775725053929559338,-6.7367554,2.6626587,3.7021637,-0.09033203,-0.6269531,0.81494135,5.3930915355366205,-36.64047042384799,15.567888240307562,-0.3171355,0.0017253887,0.11377915,0.94152874
bb09b488-e875-448b-9801-156d15b3962c,1775725053939741338,-6.0043335,2.8457642,3.950119,-0.10986328,-0.6376953,0.81445307,5.461680488536285,-36.700042521392675,15.6463284423409,-0.3176923,0.0019969968,0.11418825,0.9412909
bb09b488-e875-448b-9801-156d15b3962c,1775725053948497338,-6.2503815,2.7217865,4.8618317,-0.0961914,-0.6298828,0.8374023,5.534534160093934,-36.756154766310885,15.716182261467777,-0.31822518,0.00233089,0.11451673,0.9410702
bb09b488-e875-448b-9801-156d15b3962c,1775725053957254338,-5.821228,1.9302368,5.109787,-0.09765624,-0.62158203,0.8183593,5.594620241004631,-36.80436983340068,15.757221529655153,-0.31868032,0.002649269,0.1146494,0.9408992
bb09b488-e875-448b-9801-156d15b3962c,1775725053966011338,-5.393982,1.3198853,5.5332184,-0.08642578,-0.6166992,0.8388671,5.6568033565138345,-36.85060936020941,15.862657693415859,-0.31912312,0.0028075762,0.11530585,0.9406684
bb09b488-e875-448b-9801-156d15b3962c,1775725053974768338,-4.419327,1.0738373,5.838394,-0.0859375,-0.6303711,0.83349603,5.706192365456273,-36.882049504487235,15.957650123502454,-0.3194322,0.0029080585,0.11592318,0.9404873
bb09b488-e875-448b-9801-156d15b3962c,1775725053984962338,-3.3798218,0.46539307,5.5332184,-0.08984374,-0.61572266,0.8295898,5.75159655039517,-36.908528845198965,16.032478840595328,-0.31969646,0.0030379202,0.11638965,0.9403395
bb09b488-e875-448b-9801-156d15b3962c,1775725053995156338,-2.0980835,-0.022888184,5.7811737,-0.09423828,-0.609375,0.82763666,5.795373726907806,-36.918721912148044,16.102016872762313,-0.31982613,0.003189914,0.11682995,0.94024026
bb09b488-e875-448b-9801-156d15b3962c,1775725054005350338,-1.6098022,-0.2670288,5.598068,-0.07470703,-0.61816406,0.8081054,5.829043447711837,-36.92511113814565,16.153095268721014,-0.31991413,0.0033152932,0.11714993,0.9401701
bb09b488-e875-448b-9801-156d15b3962c,1775725054012975338,-0.5130768,0.58555603,4.1332245,-0.07714843,-0.5966797,0.80566406,5.887695224424169,-36.9264276004757,16.25476030015924,-0.31998804,0.003510899,0.11781917,0.9400606
bb09b488-e875-448b-9801-156d15b3962c,1775725054020601338,-0.63323975,1.197815,3.522873,-0.074707024,-0.5966797,0.81103516,5.916697268999495,-36.92227513583651,16.292036732950873,-0.31998515,0.003650168,0.11804735,0.9400324
bb09b488-e875-448b-9801-156d15b3962c,1775725054028227338,-0.5722046,1.1367798,2.9735565,-0.064941406,-0.5854492,0.8232421,5.935261944867924,-36.915473743789,16.32046082675812,-0.3199497,0.0037320275,0.118234225,0.9400207
bb09b488-e875-448b-9801-156d15b3962c,1775725054035853338,-0.08201599,1.3790131,1.8138885,-0.075683594,-0.6020508,0.8081054,5.958142011136307,-36.91460367126933,16.34812394588981,-0.31996712,0.0038436204,0.11839797,0.9399937
bb09b488-e875-448b-9801-156d15b3962c,1775725054047544338,-0.2670288,1.0757446,1.5659332,-0.0859375,-0.5991211,0.7919922,5.981519087920161,-36.914290651080066,16.38167666495698,-0.3199899,0.0039421013,0.118608184,0.93995905
bb09b488-e875-448b-9801-156d15b3962c,1775725054059235338,-0.75531006,0.831604,0.7724762,-0.083007805,-0.58691406,0.7871094,5.99053772849877,-36.914367312288086,16.393757383246598,-0.32000026,0.0039822413,0.11868203,0.939946
bb09b488-e875-448b-9801-156d15b3962c,1775725054070926338,-1.001358,0.22315979,0.7724762,-0.09228515,-0.5942383,0.7919922,5.9925254917402295,-36.91457857477473,16.39012304668181,-0.32000393,0.004008416,0.118646495,0.93994915
bb09b488-e875-448b-9801-156d15b3962c,1775725054081008338,-1.0604858,-0.2670288,0.53215027,-0.0859375,-0.60302734,0.79882807,5.9941404506226945,-36.91061947480672,16.404047565164028,-0.31997377,0.0039880127,0.11875945,0.9399452
bb09b488-e875-448b-9801-156d15b3962c,1775725054091090338,-1.3656616,-0.6942749,-0.2040863,-0.08935547,-0.6044922,0.80468744,5.992637221033336,-36.92135305450011,16.423136546665916,-0.32006046,0.003908173,0.1189114,0.9398968
bb09b488-e875-448b-9801-156d15b3962c,1775725054101172338,-1.7929077,-0.8163452,-0.32234192,-0.0859375,-0.60253906,0.8027344,5.987597165665863,-36.93364954583785,16.443061015251523,-0.32015625,0.0037948927,0.119078785,0.9398435
bb09b488-e875-448b-9801-156d15b3962c,1775725054108831338,-2.4032593,-2.2201538,-0.875473,-0.0727539,-0.6147461,0.8129882,5.945965968557462,-36.97090786259103,16.502039422897948,-0.32041872,0.0032392042,0.1196482,0.9396838
bb09b488-e875-448b-9801-156d15b3962c,1775725054116492338,-2.5863647,-2.5863647,-1.115799,-0.076660156,-0.59472656,0.8017578,5.915857694573754,-36.989570795116485,16.46458529545182,-0.32053855,0.003072301,0.11940997,0.9396738
bb09b488-e875-448b-9801-156d15b3962c,1775725054124153338,-2.708435,-3.2577515,-1.3637543,-0.088378906,-0.60498047,0.8134765,5.881017166267787,-37.009642499400265,16.445956093476052,-0.32066554,0.0028121574,0.11933828,0.93964034
bb09b488-e875-448b-9801-156d15b3962c,1775725054131814338,-2.281189,-3.5629272,-1.3637543,-0.08935547,-0.6171875,0.8193359,5.840292726495622,-37.02926925690121,16.458772707325178,-0.32078353,0.0024164012,0.11954137,0.9395754
bb09b488-e875-448b-9801-156d15b3962c,1775725054142344338,-1.5487671,-3.9291382,-1.2378693,-0.079589844,-0.60546875,0.82763666,5.796279780753589,-37.03706117345672,16.455264587825358,-0.3208011,0.002055047,0.119629495,0.93955904
bb09b488-e875-448b-9801-156d15b3962c,1775725054152874338,-1.6708374,-4.234314,-1.2378693,-0.101074204,-0.6191406,0.8291015,5.761927372171294,-37.04863040336496,16.47280683027883,-0.32085988,0.0017089881,0.119860135,0.9395102
bb09b488-e875-448b-9801-156d15b3962c,1775725054163404338,-0.81825256,-4.3582916,-1.1806488,-0.08105469,-0.6152344,0.8256836,5.718939444914762,-37.05360303912191,16.50905109131214,-0.3208559,0.0012484882,0.12027364,0.9394595
bb09b488-e875-448b-9801-156d15b3962c,1775725054174791338,-0.8163452,-4.9057007,-0.26130676,-0.08398437,-0.6123047,0.82275385,5.674567091714957,-37.06008407581065,16.529379444688832,-0.32086232,0.00081921834,0.12055933,0.9394212
bb09b488-e875-448b-9801-156d15b3962c,1775725054186178338,-0.81825256,-5.1517487,0.83732605,-0.09082031,-0.62841797,0.8242187,5.6388520810292855,-37.06524452310298,16.549731165200257,-0.3208669,0.00046261307,0.12082203,0.93938607
bb09b488-e875-448b-9801-156d15b3962c,1775725054197565338,-0.9384155,-5.2108765,1.6918182,-0.08642578,-0.6201172,0.8051757,5.612831038323753,-37.07219416340434,16.566835184384438,-0.3208962,0.00019220356,0.12102954,0.9393495
bb09b488-e875-448b-9801-156d15b3962c,1775725054205196338,-0.45013428,-4.966736,4.804611,-0.09423828,-0.6245117,0.8232421,5.578823001419069,-37.07632892278752,16.66690072854982,-0.3208938,-0.00037226453,0.121941686,0.93923223
bb09b488-e875-448b-9801-156d15b3962c,1775725054212828338,0.34332275,-4.4784546,5.838394,-0.07324218,-0.6152344,0.8085937,5.571636845536373,-37.07020559575162,16.720053533573623,-0.32083598,-0.00057183206,0.12240236,0.939192
bb09b488-e875-448b-9801-156d15b3962c,1775725054220460338,0.4043579,-3.440857,6.509781,-0.061523434,-0.6191406,0.8051757,5.572276234035612,-37.05869145808623,16.776194720530228,-0.32074243,-0.0007083602,0.12286992,0.9391628
bb09b488-e875-448b-9801-156d15b3962c,1775725054228092338,0.89263916,-2.7694702,6.9408417,-0.07031249,-0.61083984,0.79589844,5.584720971249634,-37.04553174038824,16.840031037586993,-0.32064804,-0.0007673679,0.12336884,0.93912953
bb09b488-e875-448b-9801-156d15b3962c,1775725054239791338,0.831604,-1.9760132,7.123947,-0.062011715,-0.6069336,0.8154296,5.603081835792442,-37.028008156819936,16.91759946698863,-0.32052442,-0.0008103037,0.12396729,0.93909293
bb09b488-e875-448b-9801-156d15b3962c,1775725054251490338,1.2569427,-0.6313324,7.2460175,-0.05273437,-0.5878906,0.8066406,5.623867861552461,-37.00558085539732,16.98225964328745,-0.3203636,-0.0007904479,0.124457195,0.93908304
bb09b488-e875-448b-9801-156d15b3962c,1775725054263189338,1.6231537,0.28038025,6.8149567,-0.045410153,-0.58447266,0.8256836,5.654539507780919,-36.97078234892449,17.029830308066543,-0.32011288,-0.00062481035,0.124789566,0.9391245
bb09b488-e875-448b-9801-156d15b3962c,1775725054273273338,2.4166107,0.95176697,6.8798065,-0.07373046,-0.5908203,0.8002929,5.689361472188202,-36.936699993107226,17.090109593835063,-0.31987265,-0.00046135113,0.12521411,0.93915
bb09b488-e875-448b-9801-156d15b3962c,1775725054283357338,2.7236938,1.7471313,6.509781,-0.062499996,-0.5834961,0.80078125,5.737893659554382,-36.901933914660134,17.17208499972374,-0.31964204,-0.0002448,0.125779,0.9391531
bb09b488-e875-448b-9801-156d15b3962c,1775725054293441338,2.7236938,1.8081665,6.0863495,-0.05566406,-0.58154297,0.79589844,5.777114302218295,-36.86402859979775,17.218608429909388,-0.319376,-1.0225922e-06,0.12608215,0.93920296
bb09b488-e875-448b-9801-156d15b3962c,1775725054303644338,2.1743774,2.6016235,5.414963,-0.06689453,-0.57958984,0.7871094,5.869540081412258,-36.799920008729686,17.353091929701396,-0.31895557,0.00047048647,0.12698016,0.9392247
bb09b488-e875-448b-9801-156d15b3962c,1775725054313847338,1.4400482,2.7217865,5.109787,-0.064453125,-0.5727539,0.774414,5.916252921562205,-36.7783173334415,17.40832817842689,-0.31883156,0.0007296577,0.12732096,0.93922055
bb09b488-e875-448b-9801-156d15b3962c,1775725054324050338,0.82969666,3.2100677,5.109787,-0.07128906,-0.57373047,0.78222656,5.9694955148442705,-36.76385196226184,17.458736188117644,-0.31877324,0.001045974,0.12759815,0.9392024
bb09b488-e875-448b-9801-156d15b3962c,1775725054331929338,-0.38909912,3.578186,4.4994354,-0.06689453,-0.5776367,0.790039,6.02453754504352,-36.75869127262615,17.49687071794681,-0.3187929,0.0013982281,0.12776195,0.93917304
bb09b488-e875-448b-9801-156d15b3962c,1775725054339809338,-0.9994507,3.4561157,4.3735504,-0.06054687,-0.578125,0.7729492,6.076030893866993,-36.76099531845177,17.540920839122762,-0.31886974,0.001694452,0.12797773,0.9391171
bb09b488-e875-448b-9801-156d15b3962c,1775725054347689338,-2.2201538,4.005432,4.1332245,-0.080566406,-0.5805664,0.76171875,6.122872951026722,-36.771751419314086,17.592902953025938,-0.3190106,0.0019185012,0.12826414,0.9390297
bb09b488-e875-448b-9801-156d15b3962c,1775725054355569338,-3.1375885,4.1866302,3.7021637,-0.079589844,-0.5605469,0.7749023,6.183595713570786,-36.789103724281304,17.62322525487054,-0.31922054,0.0023071403,0.12832859,0.9389487
bb09b488-e875-448b-9801-156d15b3962c,1775725054366893338,-4.173279,4.1885376,3.583908,-0.07421874,-0.57714844,0.7861328,6.246284081530374,-36.81204290574232,17.660379608062286,-0.31947848,0.002684759,0.12843846,0.9388449
bb09b488-e875-448b-9801-156d15b3962c,1775725054378217338,-4.907608,4.6749115,3.7021637,-0.072753906,-0.56933594,0.76904297,6.305427756368371,-36.84415170502751,17.708949880105244,-0.3198076,0.00298821,0.12864342,0.9387039
bb09b488-e875-448b-9801-156d15b3962c,1775725054389541338,-5.027771,5.1651,3.4618378,-0.082519524,-0.58691406,0.7680664,6.369031388871251,-36.882982947813844,17.715348254325736,-0.32019538,0.0034360662,0.12848419,0.93859196
bb09b488-e875-448b-9801-156d15b3962c,1775725054397171338,-5.882263,5.2261353,3.4618378,-0.08740234,-0.5722656,0.7749023,6.512463010693813,-36.966282646774346,17.73843429087292,-0.32103503,0.0044272803,0.12819827,0.93834007
bb09b488-e875-448b-9801-156d15b3962c,1775725054404804338,-6.614685,5.2871704,3.2787323,-0.08935547,-0.60302734,0.77197266,6.5838703390421935,-37.02338260184996,17.771902421725457,-0.321581,0.004836374,0.12822105,0.93814796
bb09b488-e875-448b-9801-156d15b3962c,1775725054412437338,-7.1640015,5.4092407,3.583908,-0.102050774,-0.6020508,0.7797851,6.661614503599171,-37.08506522780063,17.840117083733762,-0.32217294,0.005192548,0.12850551,0.937904
bb09b488-e875-448b-9801-156d15b3962c,1775725054420070338,-7.8983307,4.2476654,4.1332245,-0.09326171,-0.6123047,0.77734375,6.734249921560916,-37.15706027781507,17.903525503611046,-0.322843,0.005504613,0.12875462,0.9376376
bb09b488-e875-448b-9801-156d15b3962c,1775725054431644338,-8.934021,2.8457642,4.5604706,-0.107421875,-0.63427734,0.78222656,6.804108366798759,-37.239589437067444,17.97686898942702,-0.32359612,0.0057496186,0.12908204,0.93733144
bb09b488-e875-448b-9801-156d15b3962c,1775725054443218338,-9.544373,1.3198853,4.743576,-0.101562485,-0.63916016,0.7954101,6.861168029749575,-37.329745110857104,18.054500206767802,-0.32439706,0.005865462,0.12947242,0.937
bb09b488-e875-448b-9801-156d15b3962c,1775725054454792338,-10.154724,0.34332275,5.044937,-0.098144524,-0.6479492,0.80126953,6.9057038145841,-37.427070741531885,18.116207281333605,-0.32524115,0.00591229,0.12976027,0.9366672
bb09b488-e875-448b-9801-156d15b3962c,1775725054462457338,-10.093689,-0.45013428,5.1670074,-0.06982422,-0.671875,0.8261719,6.933692952884007,-37.5280710824032,18.171577655452076,-0.32609576,0.005835428,0.13003893,0.93633187
bb09b488-e875-448b-9801-156d15b3962c,1775725054470121338,-9.727478,-1.1825562,4.743576,-0.06005859,-0.6767578,0.8232421,6.945605774825839,-37.620589573271985,18.21968509717332,-0.32686257,0.0056595122,0.1303113,0.93602765
bb09b488-e875-448b-9801-156d15b3962c,1775725054477785338,-8.872986,-1.4877319,3.7670135,-0.06054687,-0.67822266,0.8183593,6.950415003609546,-37.707853792547645,18.261243347013135,-0.32757804,0.0054513765,0.13055496,0.93574476
bb09b488-e875-448b-9801-156d15b3962c,1775725054485449338,-7.713318,-1.9760132,3.2138824,-0.05810546,-0.6875,0.8325195,6.939221972123004,-37.78852843796647,18.292863711935905,-0.32822105,0.005150281,0.13076922,0.9354912
bb09b488-e875-448b-9801-156d15b3962c,1775725054495602338,-6.614685,-2.1591187,2.6683807,-0.05566406,-0.6894531,0.83300775,6.921731768855178,-37.86241698075816,18.342520407134824,-0.32880232,0.0047557727,0.13115509,0.93523514
bb09b488-e875-448b-9801-156d15b3962c,1775725054505755338,-5.636215,-2.0389557,1.996994,-0.057128903,-0.6875,0.8286132,6.895536538498669,-37.925716273556866,18.390868731582465,-0.3292873,0.004309278,0.1315652,0.935009
bb09b488-e875-448b-9801-156d15b3962c,1775725054515908338,-4.3563843,-1.7318726,0.8983612,-0.057128903,-0.6879883,0.82128906,6.86891590172324,-37.9794057168767,18.43856366963803,-0.3296935,0.0038751578,0.13198029,0.93480927
bb09b488-e875-448b-9801-156d15b3962c,1775725054527535338,-2.2201538,-0.45013428,-0.38719177,-0.058593746,-0.6777344,0.82275385,6.810743078051565,-38.064135070228275,18.3869155526069,-0.33031148,0.0034235492,0.13164689,0.9346399
bb09b488-e875-448b-9801-156d15b3962c,1775725054539162338,-1.2435913,0.2822876,-1.3637543,-0.04541015,-0.6796875,0.8081054,6.775521653165178,-38.09435440572036,18.36931687668491,-0.33051535,0.0031422563,0.13157661,0.93457866
bb09b488-e875-448b-9801-156d15b3962c,1775725054550789338,-0.63323975,1.3198853,-1.9702911,-0.04443359,-0.6772461,0.8076172,6.7446978022460895,-38.119744762626325,18.334504870149935,-0.33068478,0.0029537529,0.13135792,0.9345501
bb09b488-e875-448b-9801-156d15b3962c,1775725054558749338,-0.2670288,2.5405884,-3.068924,-0.045410153,-0.6826172,0.78759766,6.717201512315007,-38.14304663847637,18.27308593036584,-0.33084056,0.0028724233,0.1309147,0.93455744
bb09b488-e875-448b-9801-156d15b3962c,1775725054566710338,0.5264282,3.6392212,-3.862381,-0.031738278,-0.6645508,0.78076166,6.695941927886318,-38.16157661588029,18.21200769605199,-0.33096492,0.0028481744,0.13046077,0.9345769
bb09b488-e875-448b-9801-156d15b3962c,1775725054574671338,0.5874634,4.8599243,-4.6596527,-0.041503903,-0.66748047,0.78759766,6.674369788116866,-38.180241742287926,18.142320265986193,-0.33108994,0.0028462056,0.12993747,0.9346056
bb09b488-e875-448b-9801-156d15b3962c,1775725054582632338,1.077652,5.4683685,-5.4531097,-0.037597653,-0.65722656,0.77685547,6.657117261035849,-38.19139039087708,18.06605961399894,-0.33115885,0.0029095858,0.12935504,0.93466175
bb09b488-e875-448b-9801-156d15b3962c,1775725054592546338,1.197815,6.0806274,-6.0596466,-0.04638672,-0.65527344,0.7729492,6.6438535422885865,-38.20202784752928,18.002775816233914,-0.3312285,0.0029688366,0.12886742,0.93470424
bb09b488-e875-448b-9801-156d15b3962c,1775725054602460338,1.0757446,6.324768,-6.7310333,-0.028808594,-0.64990234,0.7714844,6.626895050016466,-38.21496464991142,17.939265474662037,-0.33131266,0.0029953616,0.12838653,0.9347405
bb09b488-e875-448b-9801-156d15b3962c,1775725054612374338,1.077652,7.1163177,-7.829666,-0.019531246,-0.6484375,0.7802734,6.599564086164563,-38.227861311326215,17.86192092460303,-0.33138463,0.002977443,0.12782285,0.9347923
bb09b488-e875-448b-9801-156d15b3962c,1775725054623970338,1.0757446,8.705139,-11.003494,-0.01318359,-0.66748047,0.76513666,6.5198811471706595,-38.26446258201052,17.63561294577286,-0.33158726,0.0029296288,0.1261739,0.9349446
bb09b488-e875-448b-9801-156d15b3962c,1775725054635567338,1.1959076,10.717392,-13.4449005,0.020996094,-0.67089844,0.77587885,6.455239661168025,-38.28829054245817,17.46555324875354,-0.33170536,0.0028606346,0.12495201,0.935067
bb09b488-e875-448b-9801-156d15b3962c,1775725054647164338,1.0757446,13.771057,-17.35115,0.052246097,-0.671875,0.7866211,6.376537369283024,-38.31336209641478,17.249954562851514,-0.33181813,0.0028074514,0.12339818,0.9352335
bb09b488-e875-448b-9801-156d15b3962c,1775725054657270338,1.5640259,16.578674,-21.318436,0.072753906,-0.6767578,0.78759766,6.287406908412663,-38.336150317578436,16.985216193409304,-0.33190134,0.0028151404,0.121475436,0.9354556
bb09b488-e875-448b-9801-156d15b3962c,1775725054667378338,1.8692017,19.447327,-25.777817,0.06347656,-0.6699219,0.7841796,6.188301293071314,-38.36597480287894,16.694424905526084,-0.3320322,0.0028078705,0.11936268,0.93568116
bb09b488-e875-448b-9801-156d15b3962c,1775725054677486338,2.0523071,22.010803,-30.355453,0.0625,-0.6748047,0.77685547,6.092318595193894,-38.39845145571274,16.353423652911268,-0.3321885,0.0029689735,0.116828516,0.93594503
bb09b488-e875-448b-9801-156d15b3962c,1775725054687771338,1.625061,24.94049,-39.323807,0.07519531,-0.671875,0.7680664,5.842756469972392,-38.47745330711529,15.496735390473537,-0.33255967,0.0033130022,0.11048786,0.9365818
bb09b488-e875-448b-9801-156d15b3962c,1775725054698058338,1.0147095,26.71051,-45.000076,0.08691406,-0.67529297,0.77050775,5.677228922336378,-38.528690866616024,14.990795102220423,-0.3328049,0.003365445,0.10679195,0.93692315
bb09b488-e875-448b-9801-156d15b3962c,1775725054708345338,1.0757446,28.297424,-51.408768,0.114746094,-0.6875,0.7792968,5.46008065066498,-38.58394583520877,14.425139193227935,-0.33304012,0.0031671803,0.10275472,0.9372917
bb09b488-e875-448b-9801-156d15b3962c,1775725054716978338,1.8692017,29.640198,-60.258865,0.1850586,-0.6948242,0.81445307,5.179044762617225,-38.64100525406014,13.742207361596114,-0.33324122,0.002788202,0.09794262,0.9377365
bb09b488-e875-448b-9801-156d15b3962c,1775725054725610338,3.15094,31.349182,-70.028305,0.17919922,-0.71484375,0.81689453,4.833510508445922,-38.69160579976643,12.91558923449736,-0.33334896,0.0023093466,0.09214612,0.93828684
bb09b488-e875-448b-9801-156d15b3962c,1775725054734242338,4.310608,33.424377,-79.60701,0.16552734,-0.7133789,0.77783203,4.513603781513162,-38.72844499174692,12.066235094648754,-0.3333845,0.002122743,0.0860962,0.9388491
bb09b488-e875-448b-9801-156d15b3962c,1775725054742874338,4.6157837,34.950256,-88.39607,0.15478516,-0.703125,0.7529297,4.088165268565927,-38.77940988587294,11.099528287311207,-0.33347905,0.0014010957,0.07938093,0.93940854
bb09b488-e875-448b-9801-156d15b3962c,1775725054753105338,3.7002563,35.68268,-96.21239,0.096191406,-0.7104492,0.7402344,3.625306334492202,-38.83748851287349,10.06764715286319,-0.33363923,0.00055947714,0.072235055,0.93992907
bb09b488-e875-448b-9801-156d15b3962c,1775725054763336338,2.4795532,35.194397,-102.31209,0.08886719,-0.7163086,0.72998047,3.1451934834700075,-38.90744924183437,8.986792217043712,-0.333924,-0.0002850676,0.0647319,0.9403746
bb09b488-e875-448b-9801-156d15b3962c,1775725054773567338,0.9536743,34.88922,-108.04939,0.10986328,-0.7270508,0.7319336,2.6302377449919216,-38.98581508565312,7.8505182596134215,-0.33430037,-0.0012518903,0.05687379,0.94074684
bb09b488-e875-448b-9801-156d15b3962c,1775725054781240338,-1.4877319,37.02545,-119.524,0.11328125,-0.73046875,0.72509766,1.4585889870352426,-39.162859936356895,5.368943303954213,-0.33531278,-0.0037165815,0.039862297,0.9412552
bb09b488-e875-448b-9801-156d15b3962c,1775725054788911338,-3.320694,40.197372,-124.83406,0.13427734,-0.7236328,0.7363281,0.8445360208748539,-39.25108022114842,3.929336291856502,-0.33590278,-0.004576751,0.029816851,0.9414131
bb09b488-e875-448b-9801-156d15b3962c,1775725054796582338,-4.8446655,43.49518,-129.83894,0.13134766,-0.71875,0.7607421,0.2227804767375085,-39.333218041305976,2.561839541686114,-0.33650264,-0.005693021,0.020396233,0.94144416
bb09b488-e875-448b-9801-156d15b3962c,1775725054804253338,-5.9452057,46.060562,-134.29451,0.10253906,-0.7314453,0.75146484,-0.3902514997445101,-39.41799139351498,1.1682373562988961,-0.33719087,-0.00664395,0.010745784,0.9413514
bb09b488-e875-448b-9801-156d15b3962c,1775725054815790338,-6.0653687,47.706604,-136.61385,0.06640625,-0.7285156,0.7509765,-0.9788177208178409,-39.492363368194326,-0.22758775226649416,-0.33785695,-0.0073684324,0.001016615,0.941168
bb09b488-e875-448b-9801-156d15b3962c,1775725054827327338,-5.5789948,48.43712,-136.73592,0.017089844,-0.72558594,0.77734375,-1.535858170816364,-39.54371185927158,-1.5801352561167044,-0.33838707,-0.007947162,-0.00844148,0.94093555
bb09b488-e875-448b-9801-156d15b3962c,1775725054838864338,-4.173279,46.4859,-135.63728,-0.02099609,-0.72753906,0.80957025,-2.0938297153876038,-39.55633109608051,-2.876593047857574,-0.3386478,-0.0086958315,-0.01743514,0.94071144
bb09b488-e875-448b-9801-156d15b3962c,1775725054849162338,-1.7948151,43.981552,-133.68416,-0.042480465,-0.73291016,0.83837885,-2.6728623635491005,-39.52993958399111,-4.217414865997976,-0.3386493,-0.009494629,-0.026736818,0.94048476
bb09b488-e875-448b-9801-156d15b3962c,1775725054859461338,0.7095337,42.518616,-130.99861,-0.04443359,-0.7319336,0.82177734,-3.246766644497945,-39.47020606372939,-5.5134230100403165,-0.33842835,-0.0104009025,-0.035697,0.9402573
bb09b488-e875-448b-9801-156d15b3962c,1775725054869760338,3.271103,40.86876,-128.191,-0.04101562,-0.72265625,0.8105468,-3.785729558385111,-39.38819954579873,-6.7305593282415135,-0.33805913,-0.01127347,-0.04412546,0.94002223
bb09b488-e875-448b-9801-156d15b3962c,1775725054877442338,7.3623657,37.330627,-121.35506,-0.05322265,-0.69921875,0.8286132,-4.7464075350990855,-39.15372420326984,-9.08982614906249,-0.33682254,-0.012363554,-0.060764708,0.939524
bb09b488-e875-448b-9801-156d15b3962c,1775725054885124338,8.827209,32.63092,-117.63191,-0.06835937,-0.6958008,0.8027344,-5.207160355240907,-39.00761287247255,-10.360566475995086,-0.33602867,-0.012530061,-0.069916904,0.93916947
bb09b488-e875-448b-9801-156d15b3962c,1775725054892806338,9.19342,30.921936,-113.35945,-0.049804684,-0.6816406,0.7631836,-5.667113723156523,-38.85471486310949,-11.47279904098703,-0.33520097,-0.013182166,-0.077785544,0.9388375
bb09b488-e875-448b-9801-156d15b3962c,1775725054900488338,8.825302,31.896591,-109.15184,-0.021484371,-0.6611328,0.7373047,-6.09646424757362,-38.70065842692064,-12.411009339324185,-0.33435917,-0.014112843,-0.08432785,0.9385593
bb09b488-e875-448b-9801-156d15b3962c,1775725054912037338,7.05719,31.349182,-105.062485,-0.03857421,-0.65185547,0.7319336,-6.48070744802985,-38.55539164252449,-13.537792910999453,-0.33361027,-0.014132897,-0.09254691,0.93805087
bb09b488-e875-448b-9801-156d15b3962c,1775725054923586338,4.9209595,29.640198,-101.213455,-0.035156243,-0.63134766,0.7158203,-6.855218213906855,-38.42521233188503,-14.509138105185913,-0.33298552,-0.014524972,-0.099514574,0.93755347
bb09b488-e875-448b-9801-156d15b3962c,1775725054935135338,2.357483,30.799866,-98.03963,-0.003417965,-0.6245117,0.72558594,-7.2129734218315695,-38.310368905400104,-15.325998958895696,-0.33247703,-0.015222141,-0.105257735,0.9370955
bb09b488-e875-448b-9801-156d15b3962c,1775725054945353338,1.0757446,34.03473,-95.35408,0.010742191,-0.63427734,0.79394525,-7.528956348226922,-38.20189249017117,-16.12150307385275,-0.33200085,-0.0156409,-0.1109446,0.93660134
bb09b488-e875-448b-9801-156d15b3962c,1775725054955570338,0.46539307,35.072327,-92.85164,-0.0058593713,-0.6484375,0.79443353,-7.804348205950795,-38.09532527475163,-16.99835286279568,-0.3315295,-0.015498801,-0.117413595,0.9359818
bb09b488-e875-448b-9801-156d15b3962c,1775725054965787338,0.22125244,35.560608,-90.5323,0.015136719,-0.6435547,0.7802734,-8.049190394342464,-37.992679325781374,-17.95998333411304,-0.33108357,-0.0148659125,-0.12465921,0.9352126
bb09b488-e875-448b-9801-156d15b3962c,1775725054975969338,-1.1844635,35.31456,-84.18465,-0.0039062463,-0.60839844,0.7783203,-8.478607204467117,-37.798312263619174,-19.39720715694958,-0.33018255,-0.014520378,-0.13534585,0.9340503
bb09b488-e875-448b-9801-156d15b3962c,1775725054986151338,-1.4877319,34.095764,-80.21736,-0.00146484,-0.6274414,0.793457,-8.653270409072492,-37.70857796791329,-20.243465540173734,-0.3297732,-0.013652393,-0.14183588,0.93324465
bb09b488-e875-448b-9801-156d15b3962c,1775725054996333338,-1.5487671,33.058167,-76.18904,0.010253906,-0.62841797,0.78125,-8.820877454037024,-37.62936384612088,-20.92451494861831,-0.32942533,-0.013191297,-0.14698714,0.9325767
bb09b488-e875-448b-9801-156d15b3962c,1775725055004241338,-2.6493073,32.69005,-72.40486,0.010742191,-0.5942383,0.7636719,-8.963105003160724,-37.559190397553294,-21.421375761377924,-0.32910162,-0.013042048,-0.15070134,0.9321002
bb09b488-e875-448b-9801-156d15b3962c,1775725055012151338,-4.173279,32.38678,-68.86864,0.008789066,-0.5913086,0.76123047,-9.092619596842901,-37.50242720982736,-21.87834537920787,-0.32886866,-0.012883468,-0.1541117,0.9316268
bb09b488-e875-448b-9801-156d15b3962c,1775725055020061338,-5.5770874,32.14264,-65.14168,0.033691406,-0.60253906,0.75341797,-9.197524489875534,-37.46255396751522,-22.287316424026006,-0.328736,-0.012634308,-0.15718192,0.93116397
bb09b488-e875-448b-9801-156d15b3962c,1775725055027971338,-6.3705444,32.814026,-62.08992,0.015136719,-0.5996094,0.7685547,-9.286026547452762,-37.438055995457404,-22.65842417423121,-0.32870203,-0.012333476,-0.15997222,0.93070465
bb09b488-e875-448b-9801-156d15b3962c,1775725055039258338,-7.5912476,32.75299,-58.916092,0.02734375,-0.61083984,0.78222656,-9.345277020207513,-37.42262706977403,-23.00098105797143,-0.32869768,-0.0118605755,-0.16260248,0.93025637
bb09b488-e875-448b-9801-156d15b3962c,1775725055050545338,-8.201599,32.75299,-55.986404,0.030273438,-0.6064453,0.78222656,-9.386638499544654,-37.411771189298015,-23.32981519090657,-0.3287029,-0.011273409,-0.16516593,0.92981005
bb09b488-e875-448b-9801-156d15b3962c,1775725055061832338,-8.386612,32.873154,-53.239822,0.019042972,-0.59375,0.78369135,-9.408506511247925,-37.40931426028271,-23.89528087247295,-0.32876715,-0.009833276,-0.16969243,0.928988
bb09b488-e875-448b-9801-156d15b3962c,1775725055069392338,-9.422302,31.288147,-47.384262,0.016601562,-0.59228516,0.7871094,-9.404173369781475,-37.42128383922221,-24.46036471544718,-0.32890075,-0.008153248,-0.17426884,0.92810905
bb09b488-e875-448b-9801-156d15b3962c,1775725055076951338,-10.398865,29.579163,-44.023514,-0.00048827752,-0.5859375,0.774414,-9.38425424069486,-37.44523353937244,-24.804545762737714,-0.3290844,-0.0069563733,-0.17708263,0.92752063
bb09b488-e875-448b-9801-156d15b3962c,1775725055084510338,-11.924744,27.137756,-40.670395,0.0073242225,-0.5859375,0.7749023,-9.371299774051367,-37.485534795342225,-24.992487177028206,-0.32939723,-0.0062309764,-0.17858988,0.9271256
bb09b488-e875-448b-9801-156d15b3962c,1775725055092069338,-13.086319,25.304794,-37.06932,0.01171875,-0.5913086,0.77050775,-9.352963831798343,-37.543177969346665,-25.13255684272352,-0.32983673,-0.00556387,-0.17970295,0.9267597
bb09b488-e875-448b-9801-156d15b3962c,1775725055103852338,-14.183044,23.780823,-33.956528,0.026367188,-0.5966797,0.7792968,-9.336437670374268,-37.616157518509404,-25.22871877854522,-0.3303976,-0.005005912,-0.1804354,0.9264194
bb09b488-e875-448b-9801-156d15b3962c,1775725055115635338,-14.612198,22.989273,-30.96199,0.01953125,-0.58984375,0.7685547,-9.310296029783933,-37.696357134396955,-25.270722200688336,-0.33099842,-0.0045111654,-0.18074864,0.9261464
bb09b488-e875-448b-9801-156d15b3962c,1775725055127418338,-15.403748,22.315979,-28.642654,0.028320316,-0.59277344,0.7915039,-9.27663718172557,-37.78218534204854,-25.33892145882999,-0.3316327,-0.0038681189,-0.18128815,0.9258169
bb09b488-e875-448b-9801-156d15b3962c,1775725055137567338,-14.610291,22.43805,-26.75438,0.055664062,-0.6064453,0.81103516,-9.236558066797576,-37.865922227393554,-25.371898435567516,-0.33223832,-0.0032789651,-0.1815644,0.92554784
bb09b488-e875-448b-9801-156d15b3962c,1775725055147718338,-13.450623,23.109436,-25.835037,0.05273438,-0.59277344,0.81152344,-9.185595181822903,-37.937585335607736,-25.356128476890877,-0.33272877,-0.0027677892,-0.18149413,0.9253871
bb09b488-e875-448b-9801-156d15b3962c,1775725055157869338,-12.292862,23.656845,-25.224686,0.05712891,-0.59765625,0.790039,-9.12446474213331,-38.002686769248434,-25.631140119523696,-0.33315572,-0.0013427129,-0.18380964,0.9247807
bb09b488-e875-448b-9801-156d15b3962c,1775725055165443338,-12.109756,21.886826,-23.698807,0.052246097,-0.5888672,0.79443353,-9.003308381554119,-38.12805851377226,-25.79148380928606,-0.3339602,0.00035835803,-0.1852971,0.92419446
bb09b488-e875-448b-9801-156d15b3962c,1775725055173016338,-11.924744,20.240784,-22.722244,0.053222653,-0.6088867,0.7729492,-8.947135063821568,-38.20010934555369,-25.792687003497814,-0.3344432,0.0009627538,-0.18537958,0.9240028
bb09b488-e875-448b-9801-156d15b3962c,1775725055180589338,-12.290955,18.836975,-21.806717,0.05029297,-0.5913086,0.7626953,-8.901945436031571,-38.2761299465702,-25.783028829990577,-0.3349756,0.0014548171,-0.18533783,0.9238177
bb09b488-e875-448b-9801-156d15b3962c,1775725055183114338,-13.389587,17.311096,-20.586014,0.05029297,-0.6035156,0.7524414,-8.86498138918731,-38.36312051610174,-25.76244326929839,-0.33560875,0.0018708026,-0.1851705,0.92362064
bb09b488-e875-448b-9801-156d15b3962c,1775725055185639338,-14.123917,16.0923,-19.792557,0.042968754,-0.5878906,0.74316406,-8.835007472696734,-38.4603123470594,-25.7233633809737,-0.33633476,0.0021966696,-0.18482122,0.9234258
bb09b488-e875-448b-9801-156d15b3962c,1775725055186901338,-14.612198,14.806747,-18.449783,0.047851566,-0.6113281,0.76416016,-8.806935188197183,-38.5609562864154,-25.65979546152245,-0.3370919,0.0024415944,-0.18426512,0.9232602
bb09b488-e875-448b-9801-156d15b3962c,1775725055188163338,-14.795303,14.196396,-17.778397,0.059570312,-0.6064453,0.75488275,-8.789498525189003,-38.66422110046921,-25.614460916317924,-0.33788666,0.002658967,-0.18382174,0.92305744
bb09b488-e875-448b-9801-156d15b3962c,1775725055205743338,-14.732361,13.710022,-16.92772,0.04833984,-0.60546875,0.7685547,-8.768413356838693,-38.763329990075505,-25.547164645758006,-0.3386427,0.0028316574,-0.18321756,0.92289877
bb09b488-e875-448b-9801-156d15b3962c,1775725055223323338,-14.795303,13.162613,-16.191483,0.056152347,-0.61816406,0.77050775,-8.745466471173634,-38.86617977567986,-25.45992892243146,-0.33942655,0.0029668706,-0.18245427,0.92276174
bb09b488-e875-448b-9801-156d15b3962c,1775725055239288338,-14.854431,13.160706,-15.581131,0.054199215,-0.6191406,0.77734375,-8.720446542616278,-38.97369856691046,-25.391595586400985,-0.3402439,0.0031830138,-0.181844,0.9225806
bb09b488-e875-448b-9801-156d15b3962c,1775725055255253338,-15.037537,13.160706,-15.031815,0.04394531,-0.62353516,0.7480469,-8.690480888269633,-39.07842213744378,-25.351836996253727,-0.34103045,0.0035172766,-0.1814824,0.92236024
bb09b488-e875-448b-9801-156d15b3962c,1775725055271218338,-15.403748,12.306213,-14.116287,0.042480472,-0.61279297,0.77197266,-8.656130347270595,-39.19493683086851,-25.251359789385443,-0.34190586,0.003728683,-0.18063104,0.9222025
bb09b488-e875-448b-9801-156d15b3962c,1775725055281432338,-16.199112,10.229111,-12.285233,0.053222656,-0.62109375,0.75976557,-8.608647250241669,-39.43286098493868,-25.04310241514084,-0.34373,0.003963465,-0.17880219,0.92188007
bb09b488-e875-448b-9801-156d15b3962c,1775725055291645338,-16.62445,9.559631,-11.43074,0.049804688,-0.61865234,0.78759766,-8.585998344492843,-39.5527961430423,-24.90627464058826,-0.3446529,0.0039729597,-0.1776212,0.92176384
bb09b488-e875-448b-9801-156d15b3962c,1775725055301858338,-16.685486,8.888245,-10.454178,0.052246097,-0.6220703,0.7841796,-8.565282614695269,-39.67460649420609,-24.7592818323193,-0.3455942,0.003937614,-0.17635103,0.92165554
bb09b488-e875-448b-9801-156d15b3962c,1775725055312034338,-16.748428,7.665634,-9.237289,0.063964844,-0.63623047,0.77050775,-8.549735507383405,-39.804315370697275,-24.603897612664642,-0.34660658,0.0038482705,-0.17498875,0.9215355
bb09b488-e875-448b-9801-156d15b3962c,1775725055322210338,-16.50238,6.4468384,-8.378983,0.06982422,-0.6245117,0.78369135,-8.541202587814821,-39.93316642860877,-24.57533042630218,-0.34761843,0.0040827217,-0.17462654,0.92122203
bb09b488-e875-448b-9801-156d15b3962c,1775725055332386338,-16.92772,5.4683685,-8.012772,0.07470703,-0.63720703,0.77783203,-8.542286494299436,-40.06105231346698,-24.67719012702935,-0.34863192,0.00463425,-0.17528443,0.9207114
bb09b488-e875-448b-9801-156d15b3962c,1775725055340053338,-17.23671,4.3697357,-6.7310333,0.07910156,-0.64501953,0.76660156,-8.558778300954668,-40.326551579619576,-24.383826145996878,-0.35077584,0.004125433,-0.17255023,0.920416
bb09b488-e875-448b-9801-156d15b3962c,1775725055347720338,-17.419815,4.003525,-6.4868927,0.088378906,-0.6401367,0.75341797,-8.574323854997266,-40.46477681768517,-24.269817520438583,-0.3519002,0.0039193006,-0.17141679,0.9201995
bb09b488-e875-448b-9801-156d15b3962c,1775725055355387338,-17.845154,3.6392212,-6.303787,0.09472656,-0.64404297,0.75683594,-8.597126904596784,-40.6087744076434,-24.1113571756241,-0.35308188,0.0035269428,-0.16989705,0.9200303
bb09b488-e875-448b-9801-156d15b3962c,1775725055363054338,-18.396378,3.824234,-6.1244965,0.09277344,-0.6464844,0.7519531,-8.625338215618324,-40.7541805668938,-23.957994769123328,-0.35428149,0.003106528,-0.16839984,0.9198459
bb09b488-e875-448b-9801-156d15b3962c,1775725055374624338,-18.396378,3.5762787,-5.876541,0.099121094,-0.6430664,0.7734375,-8.64904531479873,-40.89577304403554,-23.815959903523122,-0.35544264,0.0027471194,-0.16701207,0.91965145
bb09b488-e875-448b-9801-156d15b3962c,1775725055386194338,-18.51654,3.4561157,-5.9986115,0.096191406,-0.6401367,0.77246094,-8.674102669429995,-41.037438565918,-23.681792176610518,-0.35660547,0.002398789,-0.16568327,0.91944283
bb09b488-e875-448b-9801-156d15b3962c,1775725055397764338,-18.823624,3.0269623,-5.9986115,0.109375,-0.6225586,0.76660156,-8.707708863514712,-41.172364460971245,-23.557657197083124,-0.35772604,0.001997917,-0.16441655,0.91923624
bb09b488-e875-448b-9801-156d15b3962c,1775725055405407338,-19.00673,2.7217865,-6.242752,0.12939453,-0.62158203,0.7529297,-8.755886146646912,-41.30877717154237,-23.41640588902791,-0.35887814,0.0014271792,-0.1629648,0.9190467
bb09b488-e875-448b-9801-156d15b3962c,1775725055413048338,-19.126892,2.6626587,-6.7310333,0.118652344,-0.62060547,0.7451172,-8.809210039045224,-41.44553546412977,-23.307243879666874,-0.36003843,0.000914135,-0.16175333,0.91880757
bb09b488-e875-448b-9801-156d15b3962c,1775725055420689338,-19.798279,3.2730103,-7.5244904,0.12109375,-0.6513672,0.7270508,-8.864172744038965,-41.588523471307795,-23.24704507899144,-0.36124873,0.0005521169,-0.16092075,0.9184789
bb09b488-e875-448b-9801-156d15b3962c,1775725055428330338,-20.654678,3.5152435,-7.9517365,0.12988281,-0.62597656,0.71240234,-8.923482088894028,-41.74692105435215,-23.1451682679316,-0.362586,5.134754e-05,-0.15972033,0.9181615
bb09b488-e875-448b-9801-156d15b3962c,1775725055437032338,-21.873474,4.371643,-8.260727,0.14697266,-0.63183594,0.7446289,-8.989542360245073,-41.913071089018096,-23.052317708568705,-0.36399236,-0.0004622843,-0.15856014,0.91780585
bb09b488-e875-448b-9801-156d15b3962c,1775725055445734338,-22.911072,5.958557,-9.29451,0.13623047,-0.6347656,0.76123047,-9.053410794103073,-42.07856295198828,-22.974766621253735,-0.3653889,-0.0009125238,-0.15752903,0.9174279
bb09b488-e875-448b-9801-156d15b3962c,1775725055454436338,-23.462296,7.299423,-9.965897,0.13134766,-0.6538086,0.78125,-9.103597244401865,-42.24365938518076,-22.89267401897139,-0.36676198,-0.0012698853,-0.15650459,0.91705453
bb09b488-e875-448b-9801-156d15b3962c,1775725055457337338,-22.54486,7.7285767,-10.637283,0.11328125,-0.6689453,0.79394525,-9.151534036612304,-42.402027909213,-22.79910970128825,-0.3680773,-0.0016600871,-0.15540317,0.9167137
bb09b488-e875-448b-9801-156d15b3962c,1775725055460238338,-21.997452,7.4825287,-10.759354,0.111816406,-0.6738281,0.81103516,-9.189935941540348,-42.55578749193249,-22.71850674675108,-0.36934283,-0.00194252,-0.15444146,0.91636777
bb09b488-e875-448b-9801-156d15b3962c,1775725055463139338,-20.896912,7.05719,-10.759354,0.118652344,-0.6816406,0.8002929,-9.230403971437644,-42.69697174268487,-22.654680091474734,-0.37051076,-0.0022118427,-0.15362236,0.9160333
bb09b488-e875-448b-9801-156d15b3962c,1775725055473332338,-19.126892,6.0806274,-10.271072,0.088378906,-0.67578125,0.79882807,-9.271652645284025,-42.82979367248223,-22.602652495294297,-0.37161306,-0.0024655154,-0.15290497,0.9157061
bb09b488-e875-448b-9801-156d15b3962c,1775725055483525338,-17.908096,5.1631927,-9.542465,0.0859375,-0.6870117,0.79931635,-9.306173254729343,-42.95230381812501,-22.52352812513028,-0.37262365,-0.0027732076,-0.15200545,0.9154443
bb09b488-e875-448b-9801-156d15b3962c,1775725055493718338,-16.441345,4.8599243,-9.111404,0.10107422,-0.68847656,0.774414,-9.33926044904528,-43.06606389981118,-22.44672826085478,-0.3735626,-0.0030790614,-0.15113993,0.9152039
bb09b488-e875-448b-9801-156d15b3962c,1775725055509814338,-15.525818,4.798889,-8.440018,0.107910156,-0.69140625,0.7802734,-9.373749502115466,-43.1726961150638,-22.38254808572242,-0.37444684,-0.0033689467,-0.15037936,0.91496676
bb09b488-e875-448b-9801-156d15b3962c,1775725055525910338,-14.734268,5.1631927,-8.317947,0.09326172,-0.6904297,0.7607421,-9.405154591283287,-43.273736270927444,-22.303102595791174,-0.37528187,-0.0036951993,-0.14951383,0.91476524
bb09b488-e875-448b-9801-156d15b3962c,1775725055542006338,-14.183044,5.1651,-7.9517365,0.09326172,-0.69677734,0.7631836,-9.42828903333113,-43.37360357421397,-22.197637133692044,-0.37609535,-0.004043963,-0.14846905,0.91459984
bb09b488-e875-448b-9801-156d15b3962c,1775725055552208338,-13.084412,5.836487,-6.4296722,0.079589844,-0.7080078,0.7626953,-9.434007194789828,-43.571216585573076,-21.9219043205225,-0.3776492,-0.0046394654,-0.14599878,0.9143544
bb09b488-e875-448b-9801-156d15b3962c,1775725055562409338,-12.35199,5.3482056,-5.815506,0.08642578,-0.71484375,0.76562494,-9.427465279477605,-43.66143308518333,-21.79235073419992,-0.3783462,-0.004852907,-0.14487241,0.91424423
bb09b488-e875-448b-9801-156d15b3962c,1775725055572610338,-11.43837,5.1631927,-4.7779083,0.08935547,-0.70947266,0.7866211,-9.413811705112277,-43.73938311268187,-21.64036042455819,-0.37893647,-0.0051072408,-0.14360648,0.9141981
bb09b488-e875-448b-9801-156d15b3962c,1775725055580271338,-9.9105835,4.676819,-3.988266,0.083984375,-0.70703125,0.7680664,-9.397241492143129,-43.80511229395127,-21.50608593464706,-0.3794275,-0.005302863,-0.14250736,0.9141653
bb09b488-e875-448b-9801-156d15b3962c,1775725055587932338,-8.874893,4.06456,-3.1909943,0.08935547,-0.7114258,0.7797851,-9.371942540481127,-43.866068813015005,-21.391115791682115,-0.379871,-0.0053744633,-0.14159752,0.9141221
bb09b488-e875-448b-9801-156d15b3962c,1775725055595593338,-7.9574585,3.2730103,-2.5234222,0.08935547,-0.69873047,0.76562494,-9.348353510802644,-43.91932365999124,-21.2512192365849,-0.3802549,-0.005556876,-0.14049318,0.9141318
bb09b488-e875-448b-9801-156d15b3962c,1775725055603254338,-6.860733,2.3555756,-1.7261505,0.0859375,-0.68603516,0.76171875,-9.330637060131545,-43.96404122414169,-21.083188308446786,-0.38057724,-0.00589543,-0.13915582,0.91420007
bb09b488-e875-448b-9801-156d15b3962c,1775725055611968338,-6.5555573,1.8672943,-1.4820099,0.095703125,-0.6982422,0.7451172,-9.314688396576468,-44.00708057884074,-20.891462561732162,-0.38088697,-0.0063307416,-0.1376258,0.9142998
bb09b488-e875-448b-9801-156d15b3962c,1775725055620682338,-6.126404,2.1133423,-0.875473,0.08642578,-0.71240234,0.7314453,-9.293798258988147,-44.05182465384443,-20.6904821476447,-0.3812033,-0.006755584,-0.1360364,0.9144028
bb09b488-e875-448b-9801-156d15b3962c,1775725055629396338,-5.9452057,2.2335052,-0.44441223,0.08203125,-0.70458984,0.74316406,-9.264733855777994,-44.100220167628606,-20.482713008428963,-0.38153803,-0.0071327873,-0.13441573,0.9145
bb09b488-e875-448b-9801-156d15b3962c,1775725055638110338,-5.273819,1.6880035,0.3490448,0.0859375,-0.7133789,0.72509766,-9.23499755856016,-44.143169891944595,-20.267462471140707,-0.38182834,-0.007540009,-0.13274446,0.9146196
bb09b488-e875-448b-9801-156d15b3962c,1775725055648515338,-5.2719116,1.991272,0.5893707,0.123535156,-0.7246094,0.7368164,-9.20824070294243,-44.19030195611024,-20.0703261734614,-0.3821561,-0.007904836,-0.13120298,0.9147021
bb09b488-e875-448b-9801-156d15b3962c,1775725055658920338,-3.9310455,3.0269623,0.28419495,0.12109375,-0.71191406,0.7578125,-9.189572821345951,-44.22269224039217,-19.906767714725568,-0.3823789,-0.00824773,-0.12992054,0.914789
bb09b488-e875-448b-9801-156d15b3962c,1775725055669325338,-2.8915405,3.944397,-0.81062317,0.13232422,-0.70996094,0.7578125,-9.170700016210123,-44.238632758761156,-19.74282398679439,-0.38247135,-0.008617942,-0.12865551,0.9149257
bb09b488-e875-448b-9801-156d15b3962c,1775725055679301338,-0.45013428,5.3482056,-3.129959,0.1303711,-0.7114258,0.75488275,-9.138192977852798,-44.23677608861106,-19.410250137132767,-0.3823943,-0.009471286,-0.12611032,0.91530377
bb09b488-e875-448b-9801-156d15b3962c,1775725055689276338,0.038146973,5.592346,-4.716873,0.12109375,-0.70166016,0.730957,-9.126363462314735,-44.226367541521576,-19.261193749463796,-0.38228652,-0.009890892,-0.12497139,0.9155005
bb09b488-e875-448b-9801-156d15b3962c,1775725055699251338,-0.08392334,6.0806274,-5.38826,0.122558594,-0.7011719,0.72753906,-9.119594589520515,-44.21554790265956,-19.13297150623822,-0.3821824,-0.010281837,-0.12398224,0.9156742
bb09b488-e875-448b-9801-156d15b3962c,1775725055710868338,0.16021729,5.7144165,-6.6127777,0.10253906,-0.7026367,0.69189453,-9.11889221309647,-44.20858781884519,-19.024248120382072,-0.38211668,-0.010649892,-0.12312392,0.9158132
bb09b488-e875-448b-9801-156d15b3962c,1775725055722487338,-0.2670288,5.3482056,-6.795883,0.10546875,-0.7001953,0.6894531,-9.121136179073794,-44.206322516084136,-18.91536355568724,-0.38209087,-0.011034492,-0.122248836,0.91593665
bb09b488-e875-448b-9801-156d15b3962c,1775725055734106338,-1.0604858,5.3482056,-6.975174,0.0859375,-0.69140625,0.6850586,-9.124191824946204,-44.2107446729752,-18.802998895773836,-0.38211808,-0.011426618,-0.12133528,0.916042
bb09b488-e875-448b-9801-156d15b3962c,1775725055741691338,-2.5253296,4.310608,-6.303787,0.080566406,-0.69921875,0.69921875,-9.12647566868163,-44.235211346631964,-18.57795760433575,-0.38229084,-0.012157144,-0.1195,0.9162017
bb09b488-e875-448b-9801-156d15b3962c,1775725055749279338,-2.0980835,3.7002563,-5.2661896,0.072265625,-0.6875,0.7270508,-9.118155114730182,-44.239891572994935,-18.48065200191274,-0.38230878,-0.012407966,-0.118744284,0.9162891
bb09b488-e875-448b-9801-156d15b3962c,1775725055756867338,-1.8558502,3.0269623,-4.5337677,0.063964844,-0.69189453,0.7246094,-9.103820581796496,-44.244397977149255,-18.352287772358796,-0.38231558,-0.012714627,-0.117760405,0.916409
bb09b488-e875-448b-9801-156d15b3962c,1775725055759397338,-1.8558502,2.7217865,-3.6182404,0.06298828,-0.6904297,0.72607416,-9.082373922891813,-44.25424652187716,-18.180270032792034,-0.38235223,-0.013101906,-0.11644484,0.91655636
bb09b488-e875-448b-9801-156d15b3962c,1775725055761927338,-1.6117096,2.0503998,-2.4585724,0.06298828,-0.70996094,0.7216797,-9.059134666122517,-44.265091435653815,-18.048379694087636,-0.38239935,-0.013339574,-0.115454964,0.91665846
bb09b488-e875-448b-9801-156d15b3962c,1775725055764457338,-1.3065338,1.5621185,-0.9326935,0.061035156,-0.7011719,0.7167969,-9.025055809898886,-44.27685280656837,-17.889660307950454,-0.3824397,-0.01357882,-0.114285536,0.9167847
bb09b488-e875-448b-9801-156d15b3962c,1775725055775021338,-1.914978,1.2588501,0.3490448,0.05517578,-0.71240234,0.7158203,-8.98405150976096,-44.29470959762913,-17.693231350249047,-0.38251698,-0.013879566,-0.112830505,0.9169282
bb09b488-e875-448b-9801-156d15b3962c,1775725055785585338,-2.0370483,0.831604,1.5087128,0.045410156,-0.7104492,0.703125,-8.9355879190096,-44.31813432381285,-17.483316205417577,-0.3826295,-0.014157757,-0.11128613,0.9170657
bb09b488-e875-448b-9801-156d15b3962c,1775725055796149338,-2.0980835,0.46539307,2.6073456,0.05908203,-0.72021484,0.6977539,-8.88247879478664,-44.350168739205714,-17.259819321628438,-0.38280433,-0.014432067,-0.109639004,0.9171868
bb09b488-e875-448b-9801-156d15b3962c,1775725055809002338,-1.9760132,-0.1449585,4.011154,0.07373047,-0.7158203,0.71484375,-8.827772066196912,-44.374904992586764,-17.041385545943143,-0.38292074,-0.014688036,-0.10804594,0.9173232
bb09b488-e875-448b-9801-156d15b3962c,1775725055821855338,-1.9760132,-0.32806396,4.804611,0.06982422,-0.7348633,0.72265625,-8.771478952944705,-44.40637053785319,-16.80950826901258,-0.38308764,-0.014967207,-0.10634324,0.9174479
bb09b488-e875-448b-9801-156d15b3962c,1775725055834708338,-1.7318726,-0.38909912,6.0863495,0.062011722,-0.7216797,0.71875,-8.700969615063146,-44.4350735357662,-16.55206087557085,-0.3832166,-0.015222779,-0.104486465,0.9176032
bb09b488-e875-448b-9801-156d15b3962c,1775725055847561338,-0.8773804,-0.51116943,7.062912,0.072265625,-0.7285156,0.730957,-8.625388415242318,-44.455024512361405,-16.314423514900664,-0.38327485,-0.015384377,-0.10281474,0.917765
bb09b488-e875-448b-9801-156d15b3962c,1775725055857680338,-0.08392334,-1.3046265,7.6732635,0.08105469,-0.73291016,0.72021484,-8.552494304633163,-44.47531900377243,-16.0548225387952,-0.38333604,-0.015640888,-0.10095766,0.9179413
bb09b488-e875-448b-9801-156d15b3962c,1775725055867799338,0.89263916,-1.6708374,8.2798,0.080078125,-0.72558594,0.72998047,-8.479825728592939,-44.482017177252956,-15.760399875730744,-0.3832852,-0.01603445,-0.0988349,0.91818666
bb09b488-e875-448b-9801-156d15b3962c,1775725055877918338,1.5029907,-1.4877319,8.710861,0.08251953,-0.7324219,0.7216797,-8.400420623285724,-44.48657591241266,-15.465662912519036,-0.38321197,-0.01637777,-0.096733786,0.91843486
bb09b488-e875-448b-9801-156d15b3962c,1775725055885657338,2.2354126,-1.4877319,8.646011,0.09716797,-0.7319336,0.73291016,-8.324536242533068,-44.48474814771913,-15.183836699794021,-0.38309336,-0.016714208,-0.09473028,0.9186871
bb09b488-e875-448b-9801-156d15b3962c,1775725055893395338,3.211975,-2.281189,8.646011,0.08642578,-0.73095703,0.7558593,-8.258780537915165,-44.47280711461067,-14.908791802967258,-0.38290396,-0.017121665,-0.09275674,0.9189599
bb09b488-e875-448b-9801-156d15b3962c,1775725055901133338,4.676819,-2.4642944,8.15773,0.122558594,-0.7402344,0.75683594,-8.199092871262721,-44.44043237762702,-14.636599177877965,-0.3825572,-0.017593168,-0.09080518,0.91929024
bb09b488-e875-448b-9801-156d15b3962c,1775725055905003338,6.9942474,-2.401352,7.4863434,0.107421875,-0.7324219,0.7558593,-8.15365505789241,-44.38781903985322,-14.37876875875836,-0.38206232,-0.01815458,-0.08893987,0.9196674
bb09b488-e875-448b-9801-156d15b3962c,1775725055908873338,9.254456,-2.5253296,5.838394,0.09814453,-0.73828125,0.7524414,-8.110261756870113,-44.31682021514482,-14.177007959707602,-0.38143077,-0.018565966,-0.08753419,0.92005616
bb09b488-e875-448b-9801-156d15b3962c,1775725055916483338,11.449814,-4.175186,4.190445,0.103027344,-0.7480469,0.75,-8.053512107350137,-44.153383879087635,-13.762313794613577,-0.3800153,-0.019685749,-0.08454919,0.92089736
bb09b488-e875-448b-9801-156d15b3962c,1775725055924092338,13.040543,-5.334854,3.7021637,0.091308594,-0.7495117,0.7495117,-8.04329177679655,-44.05456559308827,-13.55831717219827,-0.37918323,-0.02039674,-0.08303735,0.92136234
bb09b488-e875-448b-9801-156d15b3962c,1775725055931701338,14.015198,-6.248474,2.790451,0.087890625,-0.7529297,0.7416992,-8.048056531451452,-43.95040956114966,-13.37227983826149,-0.37832084,-0.021172237,-0.08162394,0.9218255
bb09b488-e875-448b-9801-156d15b3962c,1775725055939310338,15.050888,-7.4710846,2.3021698,0.07910156,-0.74902344,0.74902344,-8.058747492844802,-43.83354624918836,-13.153874397675544,-0.37735295,-0.022113957,-0.07994113,0.9223475
bb09b488-e875-448b-9801-156d15b3962c,1775725055955304338,16.88385,-8.872986,2.1190643,0.083496094,-0.7470703,0.75927734,-8.081299034573018,-43.69766302890932,-12.950145782416028,-0.37624133,-0.023121074,-0.078353696,0.92291296
bb09b488-e875-448b-9801-156d15b3962c,1775725055971298338,19.569397,-10.33783,1.6307831,0.09814453,-0.75439453,0.7783203,-8.124582420471432,-43.53652676206608,-12.77498502834069,-0.3749445,-0.024226457,-0.07695065,0.92353016
bb09b488-e875-448b-9801-156d15b3962c,1775725055987292338,22.56012,-11.131287,0.6542206,0.114746094,-0.7475586,0.79785156,-8.186324159807135,-43.3466291359522,-12.623702595667469,-0.3734315,-0.025431413,-0.07570581,0.92421347
bb09b488-e875-448b-9801-156d15b3962c,1775725055998939338,25.85411,-11.25145,-0.5054474,0.111816406,-0.73828125,0.79882807,-8.253835753974984,-43.127440961217616,-12.460280011456938,-0.37168097,-0.0267514,-0.07437118,0.9249899
bb09b488-e875-448b-9801-156d15b3962c,1775725056010585338,28.966904,-11.68251,-1.4820099,0.1274414,-0.7363281,0.79443353,-8.33371478876408,-42.87798646727113,-12.276968567410792,-0.36968616,-0.028264457,-0.07286373,0.92586386
bb09b488-e875-448b-9801-156d15b3962c,1775725056022231338,31.532288,-12.779236,-3.2520294,0.14111328,-0.74121094,0.8022461,-8.437189902733381,-42.60818995071834,-12.144339953753615,-0.36755025,-0.029822486,-0.071709156,0.92675513
bb09b488-e875-448b-9801-156d15b3962c,1775725056029770338,35.316467,-14.36615,-8.440018,0.15722656,-0.7241211,0.7832031,-8.732619507106492,-42.00418434786766,-12.00230397129475,-0.3628342,-0.033323903,-0.07018315,0.9286092
bb09b488-e875-448b-9801-156d15b3962c,1775725056037308338,36.231995,-14.610291,-10.519028,0.16259766,-0.7270508,0.75439453,-8.918635379854495,-41.690846896885624,-11.953506286255688,-0.3604082,-0.03532647,-0.069497526,0.92953104
bb09b488-e875-448b-9801-156d15b3962c,1775725056044846338,36.476135,-15.098572,-13.07869,0.15527344,-0.70410156,0.7363281,-9.12404687055595,-41.37247981865031,-11.94559173753343,-0.35796228,-0.03736493,-0.069094844,0.93042606
bb09b488-e875-448b-9801-156d15b3962c,1775725056052384338,37.633896,-15.46669,-15.09285,0.14941406,-0.6933594,0.76708984,-9.340555234009972,-41.03174100073564,-11.933349916833425,-0.35533777,-0.03953415,-0.068652794,0.93137467
bb09b488-e875-448b-9801-156d15b3962c,1775725056062651338,40.07721,-15.098572,-17.599106,0.16552734,-0.6894531,0.8002929,-9.559897898326968,-40.66595344059629,-11.92116593342657,-0.35250887,-0.041756526,-0.06823669,0.9323827
bb09b488-e875-448b-9801-156d15b3962c,1775725056072918338,43.85948,-14.364243,-19.792557,0.19238281,-0.6948242,0.8466796,-9.775450273759086,-40.26897627354301,-11.903965928153832,-0.34941944,-0.044000607,-0.06783279,0.93347126
bb09b488-e875-448b-9801-156d15b3962c,1775725056083185338,48.072815,-12.840271,-22.84813,0.20996094,-0.70410156,0.8652344,-9.991188509217942,-39.83189027536032,-11.924487793462253,-0.34601578,-0.046179306,-0.06778752,0.9346365
bb09b488-e875-448b-9801-156d15b3962c,1775725056095096338,52.772522,-10.4599,-26.449203,0.23730469,-0.71240234,0.8374023,-10.203957550675051,-39.34829273358559,-11.999536713938777,-0.34225222,-0.048227716,-0.06825696,0.93588376
bb09b488-e875-448b-9801-156d15b3962c,1775725056107005338,56.5567,-7.713318,-29.985428,0.24121094,-0.7011719,0.8002929,-10.40797720320251,-38.82443728734959,-12.077004104973604,-0.33815488,-0.050251696,-0.06882891,0.93722385
bb09b488-e875-448b-9801-156d15b3962c,1775725056118914338,58.08258,-5.2719116,-33.281326,0.22021484,-0.6855469,0.77050775,-10.657986321622591,-38.28903765052844,-12.223182299330478,-0.33401972,-0.05247472,-0.06985714,0.938508
bb09b488-e875-448b-9801-156d15b3962c,1775725056126374338,57.531357,-3.1986237,-37.06932,0.2006836,-0.66748047,0.76171875,-11.116955765190347,-37.2147988219899,-12.584930374878697,-0.32572946,-0.0564373,-0.072665304,0.9409755
bb09b488-e875-448b-9801-156d15b3962c,1775725056133835338,56.06842,-3.5629272,-36.8824,0.17285156,-0.6425781,0.7524414,-11.327572622443196,-36.69004868548794,-12.753338699379055,-0.32166818,-0.058310095,-0.07403554,0.94215083
bb09b488-e875-448b-9801-156d15b3962c,1775725056141296338,55.030823,-3.5629272,-36.63826,0.17626953,-0.59472656,0.774414,-11.530540401930326,-36.15738656635495,-12.905949240290935,-0.31752947,-0.060188897,-0.075323395,0.9433338
bb09b488-e875-448b-9801-156d15b3962c,1775725056148757338,55.397034,-5.088806,-37.557602,0.19433594,-0.59277344,0.80615234,-11.748062286030047,-35.61855278628006,-13.054601556411027,-0.31334773,-0.062220473,-0.0765627,0.94449985
bb09b488-e875-448b-9801-156d15b3962c,1775725056158915338,56.678772,-5.5770874,-38.534164,0.20751953,-0.6088867,0.85351557,-11.968094984009374,-35.063638603224376,-13.195725804638535,-0.30903187,-0.0643273,-0.07776968,0.94568133
bb09b488-e875-448b-9801-156d15b3962c,1775725056169073338,57.958603,-5.1517487,-39.567947,0.1928711,-0.60009766,0.8417968,-12.184763388368546,-34.502691056075875,-13.355314936572677,-0.30467469,-0.06637899,-0.07916361,0.94683695
bb09b488-e875-448b-9801-156d15b3962c,1775725056179231338,57.411194,-4.966736,-40.182114,0.19140625,-0.57958984,0.8085937,-12.391101764063253,-33.94572170101284,-13.578146968686752,-0.3003808,-0.068190075,-0.08112152,0.9479131
bb09b488-e875-448b-9801-156d15b3962c,1775725056191169338,55.45807,-5.393982,-39.751053,0.15283203,-0.5620117,0.76123047,-12.594905526144016,-33.40772545479615,-13.861330799348469,-0.29628062,-0.06982005,-0.08358158,0.9488711
bb09b488-e875-448b-9801-156d15b3962c,1775725056203108338,52.955627,-5.6381226,-38.16414,0.14794922,-0.546875,0.75878906,-12.781554188679303,-32.897865319394086,-14.008146078642346,-0.29231852,-0.07164269,-0.08493934,0.9498432
bb09b488-e875-448b-9801-156d15b3962c,1775725056215047338,50.146103,-6.3114166,-36.699295,0.15039062,-0.5229492,0.7700195,-12.96047471614485,-32.41077144587755,-14.137180446151813,-0.28852716,-0.07342893,-0.0861552,0.9507562
bb09b488-e875-448b-9801-156d15b3962c,1775725056224724338,45.202255,-7.593155,-32.915115,0.15820312,-0.51123047,0.7905273,-13.312107611290216,-31.4942916440106,-14.337202871426864,-0.28137752,-0.077048026,-0.08808556,0.95243436
bb09b488-e875-448b-9801-156d15b3962c,1775725056234401338,44.225693,-7.593155,-31.877518,0.16894531,-0.5214844,0.8076172,-13.477644949622604,-31.056026434188666,-14.394331216065591,-0.27792993,-0.07886172,-0.08871079,0.9532398
bb09b488-e875-448b-9801-156d15b3962c,1775725056244078338,43.434143,-7.2250366,-31.02684,0.17822266,-0.5239258,0.8125,-13.634881385280131,-30.628957262627203,-14.460722433155619,-0.27457315,-0.08057405,-0.08942831,0.95400006
bb09b488-e875-448b-9801-156d15b3962c,1775725056254453338,41.419983,-6.187439,-29.684067,0.15576172,-0.47558594,0.80078125,-13.782142735832469,-30.214632772295506,-14.586325957037666,-0.27135655,-0.082051605,-0.090655856,0.9546804
bb09b488-e875-448b-9801-156d15b3962c,1775725056264827338,38.6734,-5.455017,-28.154373,0.14794922,-0.46923828,0.7905273,-13.904101383265678,-29.823136791858257,-14.76084904944843,-0.26834434,-0.083181076,-0.092329666,0.95527345
bb09b488-e875-448b-9801-156d15b3962c,1775725056275201338,35.741806,-5.8231354,-25.777817,0.15625,-0.46826172,0.77587885,-14.015116645946296,-29.46365767305442,-14.918767809476371,-0.2655775,-0.084224336,-0.09385618,0.9558064
bb09b488-e875-448b-9801-156d15b3962c,1775725056283996338,30.492783,-5.8231354,-21.867752,0.17285156,-0.45507812,0.7910156,-14.231182132148728,-28.82632546631453,-15.198844087275873,-0.2606919,-0.08625479,-0.09653526,0.95670307
bb09b488-e875-448b-9801-156d15b3962c,1775725056292790338,28.053284,-5.027771,-20.280838,0.1694336,-0.4453125,0.7954101,-14.320517749018727,-28.53703939050138,-15.254301605509708,-0.2584142,-0.08727374,-0.09717946,0.9571632
bb09b488-e875-448b-9801-156d15b3962c,1775725056301584338,26.342392,-4.5375824,-18.575668,0.19726562,-0.4482422,0.81738275,-14.406430457074489,-28.268597632109923,-15.23026425884231,-0.25624487,-0.08841555,-0.097142726,0.95764524
bb09b488-e875-448b-9801-156d15b3962c,1775725056310378338,24.206161,-4.7855377,-17.045975,0.18359375,-0.4453125,0.796875,-14.484772408846746,-28.019211936063,-15.202986956993634,-0.25422308,-0.08947438,-0.097072795,0.9580927
bb09b488-e875-448b-9801-156d15b3962c,1775725056320593338,22.130966,-4.3582916,-15.21492,0.19628906,-0.43310547,0.83349603,-14.553900305329156,-27.787000857135705,-15.166325000441809,-0.25232717,-0.09045246,-0.096923776,0.95851696
bb09b488-e875-448b-9801-156d15b3962c,1775725056330810338,20.362854,-3.9291382,-13.872147,0.19726562,-0.4189453,0.8325195,-14.614890771519539,-27.575257580360024,-15.125165682506289,-0.2505893,-0.091343194,-0.09672911,0.9589079
bb09b488-e875-448b-9801-156d15b3962c,1775725056341027338,18.957138,-3.686905,-12.407303,0.20703125,-0.40478516,0.8237304,-14.670412520968451,-27.375724084739318,-15.19396786521709,-0.24903531,-0.0919314,-0.09745165,0.9591833
bb09b488-e875-448b-9801-156d15b3962c,1775725056348630338,17.12799,-3.8070679,-10.576248,0.18408203,-0.41064453,0.8183593,-14.721893863012745,-27.193000517147865,-15.251103343286134,-0.24760824,-0.092489794,-0.09806424,0.9594365
bb09b488-e875-448b-9801-156d15b3962c,1775725056356233338,14.993668,-3.686905,-9.237289,0.1875,-0.41064453,0.8271484,-14.76324266502145,-27.03600246063419,-15.296558478521025,-0.24637678,-0.09295443,-0.09856742,0.9596569
bb09b488-e875-448b-9801-156d15b3962c,1775725056363836338,12.794495,-3.6239624,-7.4062347,0.1850586,-0.40576172,0.8208008,-14.79979874721583,-26.9004271204107,-15.280829743442892,-0.24526933,-0.09348129,-0.09854033,0.9598921
bb09b488-e875-448b-9801-156d15b3962c,1775725056371439338,10.536194,-4.1122437,-5.51033,0.16113281,-0.40283203,0.82763666,-14.831232461038784,-26.78621484808533,-15.193263617650569,-0.24427564,-0.09408869,-0.09789387,0.96015215
bb09b488-e875-448b-9801-156d15b3962c,1775725056383029338,8.522034,-4.4174194,-3.4999847,0.19238281,-0.40576172,0.8359375,-14.855555038727395,-26.69525665131821,-15.19813233383642,-0.24354452,-0.09440689,-0.09800584,0.9602952
bb09b488-e875-448b-9801-156d15b3962c,1775725056394619338,7.238388,-4.6634674,-1.6651154,0.19873047,-0.41015625,0.8637695,-14.8809027064895,-26.613781530223985,-15.134450151560506,-0.2428363,-0.09486602,-0.0975285,0.9604778
bb09b488-e875-448b-9801-156d15b3962c,1775725056406209338,6.5689087,-4.600525,0.16593933,0.2133789,-0.40283203,0.8759765,-14.901894772098485,-26.54408196803335,-14.997816345677563,-0.24216108,-0.095426045,-0.09643293,0.9607034
bb09b488-e875-448b-9801-156d15b3962c,1775725056413868338,6.263733,-3.5629272,2.4204254,0.21826172,-0.41064453,0.8857421,-14.923118616193111,-26.41108336872657,-14.751733910402198,-0.24086654,-0.09630187,-0.09450414,0.96113294
bb09b488-e875-448b-9801-156d15b3962c,1775725056421530338,5.712509,-3.1986237,3.8852692,0.21142578,-0.40625,0.87695307,-14.920652281970328,-26.354958352253863,-14.699510290710316,-0.2403535,-0.09646581,-0.09414686,0.96127987
bb09b488-e875-448b-9801-156d15b3962c,1775725056429192338,5.2261353,-3.440857,4.9266815,0.20898438,-0.40673828,0.8710937,-14.912991045569562,-26.303767236918784,-14.57900603171749,-0.23981954,-0.09672206,-0.093220785,0.9614777
bb09b488-e875-448b-9801-156d15b3962c,1775725056436854338,6.629944,-2.9525757,6.4525604,0.21582031,-0.41015625,0.90820307,-14.889166644733125,-26.242307137319006,-14.381428139409433,-0.2391215,-0.09701596,-0.09169496,0.9617685
bb09b488-e875-448b-9801-156d15b3962c,1775725056447013338,12.731552,-2.0961761,8.22258,0.20996094,-0.41552734,1.0336914,-14.864961016942983,-26.168278309780796,-14.243747830799569,-0.23836884,-0.09719615,-0.09068858,0.9620324
bb09b488-e875-448b-9801-156d15b3962c,1775725056457172338,25.182724,-2.527237,9.439468,0.2290039,-0.44873047,1.2026367,-14.824068572714518,-26.005525829842796,-14.035100095041855,-0.23680326,-0.09749543,-0.08923786,0.96252555
bb09b488-e875-448b-9801-156d15b3962c,1775725056467331338,40.504456,-3.501892,9.439468,0.25927734,-0.53222656,1.3198242,-14.774829707659965,-25.717685856828922,-13.73068162142951,-0.23410435,-0.09807244,-0.08716134,0.9633171
bb09b488-e875-448b-9801-156d15b3962c,1775725056467332338,53.260803,-3.9901733,8.893967,0.27783203,-0.5419922,1.2460938,-14.718436883715107,-25.311402683041457,-13.432408800323962,-0.23041238,-0.09870795,-0.08529938,0.9643085
bb09b488-e875-448b-9801-156d15b3962c,1775725056467333338,61.37657,-3.4427643,8.710861,0.25683594,-0.5131836,1.0869141,-14.652128777722892,-24.825484205263763,-13.11736580765326,-0.22602697,-0.09936842,-0.08340971,0.9654432
bb09b488-e875-448b-9801-156d15b3962c,1775725056476029338,63.27057,-3.074646,8.588791,0.25439453,-0.48291013,0.9311523,-14.586559417910728,-24.330332059100968,-12.792899629423319,-0.22154972,-0.10003802,-0.08143915,0.9665794
bb09b488-e875-448b-9801-156d15b3962c,1775725056484725338,61.13243,-2.2220612,9.016037,0.23925781,-0.4555664,0.86718744,-14.52210177702148,-23.851722004727865,-12.47104065059813,-0.21720755,-0.10066568,-0.07945553,0.96766424
bb09b488-e875-448b-9801-156d15b3962c,1775725056493421338,58.44879,-1.3046265,9.016037,0.24707031,-0.47314453,0.90332025,-14.453024800780417,-23.399027158133084,-12.154488421702213,-0.21307851,-0.10118914,-0.07748149,0.9686872
bb09b488-e875-448b-9801-156d15b3962c,1775725056502117338,58.50792,-2.0389557,8.768082,0.27246094,-0.45263672,0.92382807,-14.39280467622129,-22.937820674537335,-11.938814515062623,-0.2089679,-0.101588346,-0.07634468,0.96963066
bb09b488-e875-448b-9801-156d15b3962c,1775725056518222338,59.60846,-3.9291382,8.588791,0.26904297,-0.4345703,0.9169921,-14.35529774603878,-22.468819018969782,-11.693292824668543,-0.2047751,-0.102224104,-0.0749155,0.9705694
bb09b488-e875-448b-9801-156d15b3962c,1775725056534327338,57.47223,-5.393982,8.22258,0.2553711,-0.39013672,0.83154297,-14.329947946437281,-22.0015141840236,-11.419111093014422,-0.20057307,-0.10299159,-0.07321249,0.97149515
bb09b488-e875-448b-9801-156d15b3962c,1775725056550432338,51.856995,-4.722595,8.15773,0.25390625,-0.33154297,0.74658203,-14.298008375750719,-21.56625214880245,-11.142256890038604,-0.19662909,-0.10365323,-0.0714521,0.9723617
bb09b488-e875-448b-9801-156d15b3962c,1775725056558006338,43.920517,-3.0155182,8.34465,0.2446289,-0.30126953,0.7026367,-14.263320948719395,-21.19633860854493,-10.877674687333228,-0.19324195,-0.104184896,-0.06971461,0.97310966
bb09b488-e875-448b-9801-156d15b3962c,1775725056565579338,35.560608,-1.3046265,8.588791,0.24707031,-0.26220703,0.71435547,-14.219608402584306,-20.896941732257883,-10.625102551544572,-0.19045343,-0.104534104,-0.06800364,0.9737427
bb09b488-e875-448b-9801-156d15b3962c,1775725056573152338,27.687073,-1.914978,9.016037,0.25732422,-0.25195312,0.734375,-14.181038153656747,-20.666900015566366,-10.390745685605154,-0.18826957,-0.104817495,-0.066351324,0.97425044
bb09b488-e875-448b-9801-156d15b3962c,1775725056580725338,20.421982,-2.3441315,9.622574,0.23876953,-0.26757812,0.7158203,-14.15182763908826,-20.499866587248558,-10.174665316368579,-0.18664035,-0.10508212,-0.064760946,0.9746425
bb09b488-e875-448b-9801-156d15b3962c,1775725056590934338,12.9776,-0.8773804,9.622574,0.21533203,-0.2709961,0.703125,-14.121037379426735,-20.394306533374408,-10.012160270423038,-0.18557963,-0.10518332,-0.063554,0.97491366
bb09b488-e875-448b-9801-156d15b3962c,1775725056601143338,5.2871704,-0.32806396,10.416031,0.22949219,-0.2626953,0.7392578,-14.08703283714285,-20.355406090485836,-9.854024157547244,-0.1850861,-0.10518581,-0.062309522,0.9750876
bb09b488-e875-448b-9801-156d15b3962c,1775725056611352338,-1.6727448,-0.39100647,11.575699,0.22363281,-0.27539062,0.77197266,-14.05399894164135,-20.37878565967849,-9.683868174988515,-0.18511038,-0.10515818,-0.060887363,0.9751758
bb09b488-e875-448b-9801-156d15b3962c,1775725056623388338,-11.131287,2.418518,13.105392,0.2421875,-0.2788086,0.78271484,-13.975032915544997,-20.566491138371937,-9.435437367788516,-0.18643306,-0.104720235,-0.058681257,0.9751061
bb09b488-e875-448b-9801-156d15b3962c,1775725056635424338,-15.708923,4.5547485,14.081955,0.21679688,-0.25439453,0.79443353,-13.907300341781681,-20.718506431404386,-9.270661108497094,-0.18753734,-0.10427839,-0.057212587,0.97502893
bb09b488-e875-448b-9801-156d15b3962c,1775725056647460338,-19.737244,4.2495728,15.790939,0.1899414,-0.25976562,0.79394525,-13.833881965691237,-20.91038775136265,-9.094950320789229,-0.18896838,-0.10377511,-0.055615954,0.9748986
bb09b488-e875-448b-9801-156d15b3962c,1775725056655034338,-23.277283,4.1275024,17.866135,0.16894531,-0.31201172,0.84374994,-13.760324468342423,-21.13737742519938,-8.902373202410363,-0.19068338,-0.10327341,-0.053838223,0.9747175
bb09b488-e875-448b-9801-156d15b3962c,1775725056662608338,-25.04921,5.4683685,20.368576,0.17138672,-0.31982422,0.8793945,-13.652908128815843,-21.37740566930758,-8.74289328727785,-0.19252494,-0.10242334,-0.052387014,0.97452474
bb09b488-e875-448b-9801-156d15b3962c,1775725056670182338,-25.047302,6.385803,22.378922,0.16796875,-0.3461914,0.9409179,-13.53038642212661,-21.618816315071182,-8.553887998791167,-0.1943475,-0.1014992,-0.050712984,0.97434825
bb09b488-e875-448b-9801-156d15b3962c,1775725056677756338,-23.462296,7.299423,24.332047,0.17919922,-0.37451172,0.99951166,-13.3806996851845,-21.85553046010311,-8.315831980382784,-0.19607872,-0.1004384,-0.048678514,0.9742151
bb09b488-e875-448b-9801-156d15b3962c,1775725056687740338,-20.774841,7.6675415,25.922775,0.17919922,-0.4008789,0.9990234,-13.217376692656623,-22.0770634894821,-8.072645871803058,-0.19767606,-0.09929056,-0.046646412,0.9741094
bb09b488-e875-448b-9801-156d15b3962c,1775725056697724338,-17.478943,7.7285767,27.32277,0.16601562,-0.38378906,0.980957,-13.03995007447958,-22.281802156515468,-7.801025763508853,-0.19910656,-0.09809287,-0.044421118,0.9740434
bb09b488-e875-448b-9801-156d15b3962c,1775725056707708338,-15.462875,6.811142,28.730392,0.15673828,-0.3876953,0.95263666,-12.863300972001408,-22.46679150305744,-7.494305187498211,-0.20034663,-0.096985765,-0.041922916,0.97401077
bb09b488-e875-448b-9801-156d15b3962c,1775725056719224338,-14.123917,4.1866302,32.20558,0.14453125,-0.38476562,0.9248046,-12.516766120706766,-22.823566408823634,-6.876980850153431,-0.20273462,-0.09486855,-0.036910634,0.973928
bb09b488-e875-448b-9801-156d15b3962c,1775725056730740338,-14.183044,2.8457642,33.979416,0.14355469,-0.38476562,0.91357416,-12.353622897203788,-23.00641896944924,-6.536054218833364,-0.20395319,-0.09396179,-0.034115132,0.9738634
bb09b488-e875-448b-9801-156d15b3962c,1775725056742256338,-13.45253,1.5621185,35.318375,0.15478516,-0.42041016,0.9277343,-12.200885576069949,-23.191345692055222,-6.187333062181959,-0.20519263,-0.09316462,-0.031237666,0.9737762
bb09b488-e875-448b-9801-156d15b3962c,1775725056752472338,-12.475967,-0.08583069,36.84807,0.17333984,-0.42285156,0.94531244,-12.052662401594977,-23.37309087850265,-5.828314893179825,-0.20640421,-0.09243517,-0.02827261,0.97368026
bb09b488-e875-448b-9801-156d15b3962c,1775725056762688338,-10.33783,-1.6098022,37.2715,0.20166016,-0.43408203,0.9409179,-11.924224173822084,-23.53803864802401,-5.454739281819339,-0.20747225,-0.09191903,-0.025169123,0.97358733
bb09b488-e875-448b-9801-156d15b3962c,1775725056772904338,-8.020401,-1.367569,37.397385,0.21044922,-0.43554688,0.9326171,-11.805294112920604,-23.684509571169464,-5.074257835083157,-0.20838514,-0.091514856,-0.022011302,0.9735069
bb09b488-e875-448b-9801-156d15b3962c,1775725056780542338,-6.433487,0.09727478,37.885666,0.18408203,-0.43359375,0.915039,-11.536378114916603,-23.94559227718758,-4.318989754250931,-0.20995499,-0.09047042,-0.01584056,0.97338724
bb09b488-e875-448b-9801-156d15b3962c,1775725056788180338,-7.1029663,0.77056885,38.557053,0.1743164,-0.4272461,0.8974609,-11.383453271601903,-24.079281328619423,-3.991130311483681,-0.21081166,-0.089708015,-0.013213845,0.97331184
bb09b488-e875-448b-9801-156d15b3962c,1775725056795818338,-8.020401,1.2569427,40.87639,0.1381836,-0.42529297,0.88525385,-11.204490778037439,-24.225215206340525,-3.5892306788103054,-0.21171814,-0.088861786,-0.009999049,0.9732311
bb09b488-e875-448b-9801-156d15b3962c,1775725056803456338,-9.605408,0.64849854,44.050217,0.10595703,-0.42822263,0.8627929,-11.001892248857912,-24.385492460220583,-3.1430790456219886,-0.21271901,-0.087899,-0.006444427,0.9731303
bb09b488-e875-448b-9801-156d15b3962c,1775725056815181338,-10.887146,-0.2670288,48.139572,0.095703125,-0.4169922,0.8701171,-10.790552298625277,-24.560160028296234,-2.6519287338164883,-0.21381769,-0.08695032,-0.002517595,0.9729928
bb09b488-e875-448b-9801-156d15b3962c,1775725056826906338,-12.47406,-0.63323975,51.80168,0.071777344,-0.421875,0.86914057,-10.56468775404528,-24.75644185622626,-2.1477318893292234,-0.21510145,-0.085907385,0.0015037004,0.97280455
bb09b488-e875-448b-9801-156d15b3962c,1775725056838631338,-13.511658,-1.3656616,54.971695,0.07714844,-0.43115234,0.8574218,-10.33053311748487,-24.967013064950102,-1.6175446112968588,-0.21650003,-0.08485289,0.0057329694,0.9725711
bb09b488-e875-448b-9801-156d15b3962c,1775725056846245338,-14.612198,-1.5506744,58.149338,0.06347656,-0.4272461,0.8818359,-10.083592877144163,-25.18720006279371,-1.057849747327359,-0.2179731,-0.08375945,0.010186165,0.9723004
bb09b488-e875-448b-9801-156d15b3962c,1775725056853858338,-15.830994,-1.0604858,61.14006,0.053222656,-0.42626953,0.8813476,-9.817901771569801,-25.419237861907288,-0.4971849064207244,-0.21956305,-0.08252398,0.014609732,0.97199184
bb09b488-e875-448b-9801-156d15b3962c,1775725056861471338,-16.441345,-1.4266968,64.741135,0.05419922,-0.43359375,0.88476557,-9.533429950761638,-25.656235488485063,0.05856588155079113,-0.22121763,-0.08113789,0.018946808,0.97165847
bb09b488-e875-448b-9801-156d15b3962c,1775725056869084338,-16.748428,-2.527237,67.73186,0.061035156,-0.44726562,0.9077148,-9.245452760559054,-25.8974666584111,0.683124362940983,-0.22287796,-0.07987492,0.023850033,0.9712756
bb09b488-e875-448b-9801-156d15b3962c,1775725056876684338,-16.62445,-3.1356812,70.295334,0.057128906,-0.45458984,0.8974609,-8.948060754104365,-26.139091654526244,1.3227319489686395,-0.22455236,-0.07858373,0.02884837,0.9708596
bb09b488-e875-448b-9801-156d15b3962c,1775725056884284338,-16.25824,-3.2577515,73.34328,0.049804688,-0.46679688,0.90039057,-8.638455582495855,-26.38272556932823,1.971294994359995,-0.22626093,-0.07722964,0.03388475,0.97040874
bb09b488-e875-448b-9801-156d15b3962c,1775725056891884338,-16.319275,-3.868103,76.52092,0.048828125,-0.46435547,0.8867187,-8.310741743980332,-26.628570140148526,2.675589028963407,-0.22797808,-0.07585692,0.039342288,0.96990913
bb09b488-e875-448b-9801-156d15b3962c,1775725056894418338,-16.197205,-5.2108765,79.32854,0.059570312,-0.4711914,0.8818359,-7.980894281087489,-26.873679599038088,3.413614288030292,-0.2296911,-0.07455966,0.045063168,0.9693565
bb09b488-e875-448b-9801-156d15b3962c,1775725056896952338,-16.622543,-6.3114166,81.21681,0.079589844,-0.4716797,0.8793945,-7.660087009731472,-27.120292591089118,4.179349454657817,-0.23141895,-0.073422275,0.05101923,0.96873695
bb09b488-e875-448b-9801-156d15b3962c,1775725056899486338,-16.319275,-6.980896,82.868576,0.09667969,-0.48242185,0.91357416,-7.345026342307058,-27.358981985836035,4.946297703461319,-0.2330993,-0.07236252,0.056974992,0.96808165
bb09b488-e875-448b-9801-156d15b3962c,1775725056911125338,-15.100479,-7.226944,82.746506,0.106933594,-0.4790039,0.94482416,-7.038934788851159,-27.582131231288987,5.696451418500414,-0.23467605,-0.07136727,0.06278256,0.96741515
bb09b488-e875-448b-9801-156d15b3962c,1775725056922764338,-12.475967,-7.6503754,81.89201,0.1328125,-0.5205078,0.96044916,-6.738616161469302,-27.77637199379748,6.451081924754518,-0.23602316,-0.070445314,0.06861174,0.9667589
bb09b488-e875-448b-9801-156d15b3962c,1775725056934403338,-8.932114,-8.447647,79.87404,0.12207031,-0.52734375,0.9521484,-6.452728834860099,-27.944955079681602,7.171503257435129,-0.23718531,-0.06958602,0.07415836,0.966127
bb09b488-e875-448b-9801-156d15b3962c,1775725056946442338,-6.4926147,-10.33783,77.80266,0.110839844,-0.52441406,0.91943353,-6.187315304340197,-28.087115088972137,7.845365454579639,-0.23815651,-0.068808794,0.07933409,0.96553236
bb09b488-e875-448b-9801-156d15b3962c,1775725056958481338,-5.882263,-12.779236,76.337814,0.095703125,-0.52197266,0.8886718,-5.94580455829899,-28.219465900987732,8.534302988273735,-0.2390342,-0.068274036,0.08467334,0.9648998
bb09b488-e875-448b-9801-156d15b3962c,1775725056970520338,-6.0653687,-16.563416,75.42229,0.08642578,-0.5209961,0.8676757,-5.736533887457426,-28.35403811696761,9.215704311320122,-0.23992354,-0.068009965,0.09000728,0.9642147
bb09b488-e875-448b-9801-156d15b3962c,1775725056982559338,-7.041931,-20.347595,75.056076,0.084472656,-0.5410156,0.86962885,-5.556540423390021,-28.49944045123433,9.891549136985176,-0.24089357,-0.06800093,0.095348716,0.96345973
bb09b488-e875-448b-9801-156d15b3962c,1775725056992714338,-7.7724457,-23.340225,75.056076,0.10107422,-0.5410156,0.8706054,-5.405722003948939,-28.65286028345667,10.556479720918258,-0.2419195,-0.06823394,0.100651614,0.9626465
bb09b488-e875-448b-9801-156d15b3962c,1775725057002869338,-8.384705,-24.864197,74.7509,0.09765625,-0.5625,0.91162103,-5.27936770021208,-28.807219656094603,11.203361885079904,-0.2429461,-0.06864957,0.105845064,0.961801
bb09b488-e875-448b-9801-156d15b3962c,1775725057013024338,-8.628845,-24.864197,74.01848,0.114746094,-0.5678711,0.90624994,-5.155770819956509,-28.962630176274647,11.928162824121294,-0.24393412,-0.06926935,0.11168839,0.96084523
bb09b488-e875-448b-9801-156d15b3962c,1775725057019065338,-6.3095093,-22.789001,72.98088,0.11669922,-0.54541016,0.9018554,-4.897018584841577,-29.235700210430036,13.221212753396877,-0.2457051,-0.070090495,0.12200292,0.9590785
bb09b488-e875-448b-9801-156d15b3962c,1775725057025106338,-6.248474,-21.751404,72.309494,0.122558594,-0.5493164,0.8891601,-4.762432544501186,-29.359470643145517,13.927505156518803,-0.24645625,-0.07059333,0.12763377,0.9581156
bb09b488-e875-448b-9801-156d15b3962c,1775725057031147338,-6.126404,-20.28656,71.76018,0.12548828,-0.5288086,0.887207,-4.616695824500359,-29.472715463492918,14.523434027506315,-0.24720296,-0.07076703,0.13230808,0.9572759
bb09b488-e875-448b-9801-156d15b3962c,1775725057037188338,-6.0043335,-19.615173,71.33293,0.099609375,-0.53759766,0.8833007,-4.454661734597452,-29.583917521356582,15.07249734823029,-0.24798521,-0.070711374,0.13654786,0.95648205
bb09b488-e875-448b-9801-156d15b3962c,1775725057043229338,-6.067276,-19.556046,72.0005,0.09033203,-0.54248047,0.87451166,-4.283570910357633,-29.702262773075784,15.702095979497184,-0.2487941,-0.07077229,0.14143203,0.9555573
bb09b488-e875-448b-9801-156d15b3962c,1775725057052784338,-6.433487,-19.678116,72.18361,0.095703125,-0.5488281,0.87744135,-4.112097576250748,-29.818144375762873,16.413229374808864,-0.24953838,-0.07101646,0.14698514,0.95450646
bb09b488-e875-448b-9801-156d15b3962c,1775725057062340338,-6.614685,-20.347595,72.797775,0.0703125,-0.5517578,0.87499994,-3.9418915261966867,-29.934063790262734,17.130648545281495,-0.25028306,-0.07129751,0.15258235,0.9534116
bb09b488-e875-448b-9801-156d15b3962c,1775725057071896338,-6.0653687,-21.080017,73.59123,0.08496094,-0.5629883,0.9052734,-3.7636151890922687,-30.047143267969762,17.796023546527174,-0.25105307,-0.071406685,0.15771826,0.9523646
bb09b488-e875-448b-9801-156d15b3962c,1775725057081452338,-5.5160522,-21.202087,73.34328,0.11376953,-0.5683594,0.8920898,-3.5964915104921533,-30.159610268915852,18.389876498666183,-0.25185302,-0.07146242,0.16227448,0.9513833
